# accelerometer data
# file: 'rgbd_dataset_freiburg1_floor.bag'
# timestamp ax ay az
1305033523.866191 0.395140 7.675290 -5.915122
1305033523.869781 0.478957 7.627394 -6.082757
1305033523.870796 0.478957 7.627394 -6.082757
1305033523.872068 0.478957 7.627394 -6.082757
1305033523.873187 0.478957 7.627394 -6.082757
1305033523.876339 0.443035 7.723186 -5.915122
1305033523.877303 0.443035 7.723186 -5.915122
1305033523.880940 0.395140 7.723186 -5.915122
1305033523.881956 0.395140 7.723186 -5.915122
1305033523.885200 0.478957 7.723186 -6.082757
1305033523.886213 0.478957 7.723186 -6.082757
1305033523.887769 0.478957 7.723186 -6.082757
1305033523.888773 0.478957 7.723186 -6.082757
1305033523.892186 0.478957 7.962665 -5.891174
1305033523.893169 0.478957 7.962665 -5.891174
1305033523.896339 0.478957 7.914769 -5.843279
1305033523.897328 0.478957 7.914769 -5.843279
1305033523.900939 0.478957 7.914769 -5.891174
1305033523.901895 0.478957 7.914769 -5.891174
1305033523.905188 0.478957 8.010560 -5.891174
1305033523.906182 0.478957 8.010560 -5.891174
1305033523.907266 0.478957 8.010560 -5.891174
1305033523.908658 0.478957 8.010560 -5.891174
1305033523.912080 0.526853 7.914769 -5.939070
1305033523.913098 0.526853 7.914769 -5.939070
1305033523.916307 0.478957 7.914769 -5.939070
1305033523.917317 0.478957 7.914769 -5.939070
1305033523.920968 0.478957 7.914769 -6.178549
1305033523.921975 0.478957 7.914769 -6.178549
1305033523.925224 0.478957 7.962665 -6.082757
1305033523.926194 0.478957 7.962665 -6.082757
1305033523.929815 0.478957 7.723186 -6.226444
1305033523.930938 0.478957 7.723186 -6.226444
1305033523.932207 0.478957 7.723186 -6.226444
1305033523.933187 0.478957 7.723186 -6.226444
1305033523.936321 0.478957 7.818977 -6.274340
1305033523.937325 0.478957 7.818977 -6.274340
1305033523.940941 0.478957 7.675290 -6.274340
1305033523.941950 0.478957 7.675290 -6.274340
1305033523.945040 0.478957 7.818977 -6.226444
1305033523.946070 0.478957 7.818977 -6.226444
1305033523.947296 0.478957 7.818977 -6.226444
1305033523.948439 0.478957 7.818977 -6.226444
1305033523.952101 0.526853 7.723186 -6.262366
1305033523.953066 0.526853 7.723186 -6.262366
1305033523.956290 0.490931 7.627394 -6.274340
1305033523.957323 0.490931 7.627394 -6.274340
1305033523.960940 0.682514 7.603447 -6.274340
1305033523.961916 0.682514 7.603447 -6.274340
1305033523.965294 0.478957 7.579499 -6.082757
1305033523.966167 0.478957 7.579499 -6.082757
1305033523.969804 0.478957 7.723186 -6.178549
1305033523.970812 0.478957 7.723186 -6.178549
1305033523.971775 0.478957 7.723186 -6.178549
1305033523.975187 0.478957 7.627394 -6.274340
1305033523.976437 0.478957 7.627394 -6.274340
1305033523.979795 0.502905 7.627394 -6.178549
1305033523.980940 0.502905 7.627394 -6.178549
1305033523.982223 0.502905 7.627394 -6.178549
1305033523.983194 0.502905 7.627394 -6.178549
1305033523.986167 0.502905 7.603447 -5.986966
1305033523.987279 0.502905 7.603447 -5.986966
1305033523.990938 0.478957 7.627394 -5.915122
1305033523.991937 0.478957 7.627394 -5.915122
1305033523.995222 0.466983 7.627394 -5.891174
1305033523.996174 0.466983 7.627394 -5.891174
1305033523.999783 0.682514 7.579499 -6.082757
1305033524.000794 0.682514 7.579499 -6.082757
1305033524.002060 0.682514 7.579499 -6.082757
1305033524.003051 0.682514 7.579499 -6.082757
1305033524.006309 0.478957 7.531603 -5.891174
1305033524.007278 0.478957 7.531603 -5.891174
1305033524.010800 0.478957 7.435812 -5.891174
1305033524.011978 0.478957 7.435812 -5.891174
1305033524.015168 0.478957 7.340020 -5.603800
1305033524.016151 0.478957 7.340020 -5.603800
1305033524.019819 0.478957 7.340020 -5.699591
1305033524.020937 0.478957 7.340020 -5.699591
1305033524.022042 0.478957 7.340020 -5.699591
1305033524.023224 0.478957 7.340020 -5.699591
1305033524.026148 0.502905 7.268176 -5.555904
1305033524.027294 0.502905 7.268176 -5.555904
1305033524.030795 0.682514 7.268176 -5.555904
1305033524.031899 0.682514 7.268176 -5.555904
1305033524.035058 0.682514 7.244229 -5.508009
1305033524.036186 0.682514 7.244229 -5.508009
1305033524.037405 0.682514 7.244229 -5.508009
1305033524.038447 0.682514 7.244229 -5.508009
1305033524.041917 0.574749 7.244229 -5.508009
1305033524.043064 0.574749 7.244229 -5.508009
1305033524.046310 0.466983 7.256203 -5.412217
1305033524.047310 0.466983 7.256203 -5.412217
1305033524.050794 0.502905 7.340020 -5.508009
1305033524.051908 0.502905 7.340020 -5.508009
1305033524.055048 0.526853 7.340020 -5.508009
1305033524.056138 0.526853 7.340020 -5.508009
1305033524.057385 0.526853 7.340020 -5.508009
1305033524.058779 0.526853 7.340020 -5.508009
1305033524.062060 0.478957 7.292124 -5.508009
1305033524.063061 0.478957 7.292124 -5.508009
1305033524.066155 0.466983 7.435812 -5.555904
1305033524.067266 0.466983 7.435812 -5.555904
1305033524.070961 0.526853 7.292124 -5.891174
1305033524.071888 0.526853 7.292124 -5.891174
1305033524.075169 0.395140 7.531603 -5.891174
1305033524.076203 0.395140 7.531603 -5.891174
1305033524.079807 0.478957 7.627394 -5.699591
1305033524.080807 0.478957 7.627394 -5.699591
1305033524.082059 0.478957 7.627394 -5.699591
1305033524.083048 0.478957 7.627394 -5.699591
1305033524.086297 0.502905 7.627394 -5.891174
1305033524.087309 0.502905 7.627394 -5.891174
1305033524.090911 0.478957 7.723186 -5.891174
1305033524.091888 0.478957 7.723186 -5.891174
1305033524.095219 0.526853 7.818977 -5.699591
1305033524.096167 0.526853 7.818977 -5.699591
1305033524.099776 0.478957 7.651342 -5.843279
1305033524.100940 0.478957 7.651342 -5.843279
1305033524.102041 0.478957 7.651342 -5.843279
1305033524.103185 0.478957 7.651342 -5.843279
1305033524.106309 0.526853 7.675290 -5.939070
1305033524.107266 0.526853 7.675290 -5.939070
1305033524.110959 0.526853 7.723186 -5.891174
1305033524.111901 0.526853 7.723186 -5.891174
1305033524.115184 0.502905 7.818977 -5.699591
1305033524.116176 0.502905 7.818977 -5.699591
1305033524.119807 0.682514 7.723186 -5.843279
1305033524.120782 0.682514 7.723186 -5.843279
1305033524.122066 0.682514 7.723186 -5.843279
1305033524.123032 0.682514 7.723186 -5.843279
1305033524.126158 0.682514 7.818977 -5.891174
1305033524.127270 0.682514 7.818977 -5.891174
1305033524.130810 0.778306 7.818977 -5.891174
1305033524.131772 0.778306 7.818977 -5.891174
1305033524.135025 0.778306 7.818977 -5.891174
1305033524.136191 0.778306 7.818977 -5.891174
1305033524.137280 0.778306 7.818977 -5.891174
1305033524.138278 0.778306 7.818977 -5.891174
1305033524.141935 0.778306 7.627394 -5.843279
1305033524.142937 0.778306 7.627394 -5.843279
1305033524.146170 0.682514 7.627394 -5.795383
1305033524.147184 0.682514 7.627394 -5.795383
1305033524.150810 0.778306 7.627394 -5.986966
1305033524.151927 0.778306 7.627394 -5.986966
1305033524.155046 0.682514 7.627394 -5.939070
1305033524.156150 0.682514 7.627394 -5.939070
1305033524.157272 0.682514 7.627394 -5.939070
1305033524.158427 0.682514 7.627394 -5.939070
1305033524.161905 0.682514 7.627394 -5.891174
1305033524.163103 0.682514 7.627394 -5.891174
1305033524.166168 0.682514 7.435812 -5.939070
1305033524.167311 0.682514 7.435812 -5.939070
1305033524.170822 0.682514 7.435812 -5.699591
1305033524.171922 0.682514 7.435812 -5.699591
1305033524.175186 0.574749 7.435812 -5.531956
1305033524.176218 0.574749 7.435812 -5.531956
1305033524.179772 0.682514 7.531603 -5.508009
1305033524.180813 0.682514 7.531603 -5.508009
1305033524.182081 0.682514 7.531603 -5.508009
1305033524.183062 0.682514 7.531603 -5.508009
1305033524.186139 0.862123 7.627394 -5.508009
1305033524.187266 0.862123 7.627394 -5.508009
1305033524.190781 0.862123 7.627394 -5.555904
1305033524.191891 0.862123 7.627394 -5.555904
1305033524.195220 0.862123 7.651342 -5.508009
1305033524.196206 0.862123 7.651342 -5.508009
1305033524.199770 0.862123 7.627394 -5.519982
1305033524.200811 0.862123 7.627394 -5.519982
1305033524.202044 0.862123 7.627394 -5.519982
1305033524.203047 0.862123 7.627394 -5.519982
1305033524.206167 0.862123 7.627394 -5.555904
1305033524.207359 0.862123 7.627394 -5.555904
1305033524.210821 0.778306 7.675290 -5.508009
1305033524.211932 0.778306 7.675290 -5.508009
1305033524.215189 0.682514 7.627394 -5.508009
1305033524.216167 0.682514 7.627394 -5.508009
1305033524.219774 0.682514 7.627394 -5.508009
1305033524.220782 0.682514 7.627394 -5.508009
1305033524.222065 0.682514 7.627394 -5.508009
1305033524.223031 0.682514 7.627394 -5.508009
1305033524.226284 0.826201 7.723186 -5.699591
1305033524.227273 0.826201 7.723186 -5.699591
1305033524.230940 0.682514 7.818977 -5.508009
1305033524.231910 0.682514 7.818977 -5.508009
1305033524.235156 0.850149 7.675290 -5.603800
1305033524.236194 0.850149 7.675290 -5.603800
1305033524.239813 0.778306 7.818977 -5.555904
1305033524.240823 0.778306 7.818977 -5.555904
1305033524.242062 0.778306 7.818977 -5.555904
1305033524.243046 0.778306 7.818977 -5.555904
1305033524.246170 0.682514 7.998586 -5.843279
1305033524.247312 0.682514 7.998586 -5.843279
1305033524.250824 0.778306 8.010560 -5.699591
1305033524.251901 0.778306 8.010560 -5.699591
1305033524.255050 0.574749 8.034508 -5.603800
1305033524.256153 0.574749 8.034508 -5.603800
1305033524.257267 0.574749 8.034508 -5.603800
1305033524.258425 0.574749 8.034508 -5.603800
1305033524.262026 0.862123 8.010560 -6.082757
1305033524.263066 0.862123 8.010560 -6.082757
1305033524.266322 0.682514 8.297935 -5.891174
1305033524.267281 0.682514 8.297935 -5.891174
1305033524.270931 0.682514 8.202143 -6.274340
1305033524.272054 0.682514 8.202143 -6.274340
1305033524.275155 0.682514 8.345830 -6.274340
1305033524.276185 0.682514 8.345830 -6.274340
1305033524.279468 0.682514 8.393726 -6.322236
1305033524.280793 0.682514 8.393726 -6.322236
1305033524.282059 0.682514 8.393726 -6.322236
1305033524.283075 0.682514 8.393726 -6.322236
1305033524.286276 0.682514 8.393726 -6.657506
1305033524.287283 0.682514 8.393726 -6.657506
1305033524.290947 0.778306 8.489518 -6.561715
1305033524.292028 0.778306 8.489518 -6.561715
1305033524.295225 0.574749 8.489518 -6.370132
1305033524.296186 0.574749 8.489518 -6.370132
1305033524.299518 0.478957 8.728996 -6.561715
1305033524.300814 0.478957 8.728996 -6.561715
1305033524.302059 0.478957 8.728996 -6.561715
1305033524.303062 0.478957 8.728996 -6.561715
1305033524.306208 0.574749 8.681100 -6.657506
1305033524.307268 0.574749 8.681100 -6.657506
1305033524.310940 0.478957 8.681100 -6.465923
1305033524.311929 0.478957 8.681100 -6.465923
1305033524.315192 0.490931 8.728996 -6.657506
1305033524.316177 0.490931 8.728996 -6.657506
1305033524.319765 0.478957 8.681100 -6.609610
1305033524.320778 0.478957 8.681100 -6.609610
1305033524.322066 0.478957 8.681100 -6.609610
1305033524.323030 0.478957 8.681100 -6.609610
1305033524.326154 0.682514 8.585309 -6.465923
1305033524.327168 0.682514 8.585309 -6.465923
1305033524.330785 0.466983 8.585309 -6.322236
1305033524.332044 0.466983 8.585309 -6.322236
1305033524.335191 0.574749 8.417674 -6.657506
1305033524.336186 0.574749 8.417674 -6.657506
1305033524.339772 0.826201 8.417674 -6.561715
1305033524.340958 0.826201 8.417674 -6.561715
1305033524.342059 0.826201 8.417674 -6.561715
1305033524.343189 0.826201 8.417674 -6.561715
1305033524.346340 0.682514 8.681100 -6.286314
1305033524.347317 0.682514 8.681100 -6.286314
1305033524.350953 0.682514 8.489518 -6.286314
1305033524.351904 0.682514 8.489518 -6.286314
1305033524.355196 0.682514 8.393726 -6.274340
1305033524.356198 0.682514 8.393726 -6.274340
1305033524.359768 0.826201 8.393726 -6.274340
1305033524.360914 0.826201 8.393726 -6.274340
1305033524.361903 0.826201 8.393726 -6.274340
1305033524.365263 0.682514 8.393726 -6.274340
1305033524.366184 0.682514 8.393726 -6.274340
1305033524.369779 0.526853 8.202143 -6.274340
1305033524.370828 0.526853 8.202143 -6.274340
1305033524.372044 0.526853 8.202143 -6.274340
1305033524.373190 0.526853 8.202143 -6.274340
1305033524.376443 0.526853 8.202143 -6.274340
1305033524.377645 0.526853 8.202143 -6.274340
1305033524.378815 0.526853 8.202143 -6.274340
1305033524.382062 0.682514 8.010560 -6.274340
1305033524.383042 0.682514 8.010560 -6.274340
1305033524.386221 0.478957 8.010560 -6.274340
1305033524.387282 0.478957 8.010560 -6.274340
1305033524.390815 0.778306 7.675290 -6.274340
1305033524.391917 0.778306 7.675290 -6.274340
1305033524.395109 0.778306 7.627394 -6.082757
1305033524.396192 0.778306 7.627394 -6.082757
1305033524.397315 0.778306 7.627394 -6.082757
1305033524.398436 0.778306 7.627394 -6.082757
1305033524.401927 0.574749 7.627394 -5.699591
1305033524.403068 0.574749 7.627394 -5.699591
1305033524.406312 0.862123 7.627394 -5.891174
1305033524.407315 0.862123 7.627394 -5.891174
1305033524.410942 0.862123 7.435812 -5.795383
1305033524.411901 0.862123 7.435812 -5.795383
1305033524.415230 0.862123 7.244229 -5.891174
1305033524.416170 0.862123 7.244229 -5.891174
1305033524.419774 0.826201 7.196333 -5.603800
1305033524.420909 0.826201 7.196333 -5.603800
1305033524.422026 0.826201 7.196333 -5.603800
1305033524.423158 0.826201 7.196333 -5.603800
1305033524.426283 0.850149 7.052646 -5.603800
1305033524.427280 0.850149 7.052646 -5.603800
1305033524.430931 0.778306 7.148437 -5.555904
1305033524.431898 0.778306 7.148437 -5.555904
1305033524.435186 0.862123 7.052646 -5.508009
1305033524.436184 0.862123 7.052646 -5.508009
1305033524.439774 0.850149 7.052646 -5.699591
1305033524.440816 0.850149 7.052646 -5.699591
1305033524.442063 0.850149 7.052646 -5.699591
1305033524.443066 0.850149 7.052646 -5.699591
1305033524.446313 0.862123 6.885011 -5.891174
1305033524.447281 0.862123 6.885011 -5.891174
1305033524.450954 0.862123 6.861063 -5.891174
1305033524.451900 0.862123 6.861063 -5.891174
1305033524.455190 0.682514 6.956854 -5.891174
1305033524.456159 0.682514 6.956854 -5.891174
1305033524.459772 0.682514 6.885011 -5.699591
1305033524.460781 0.682514 6.885011 -5.699591
1305033524.462028 0.682514 6.885011 -5.699591
1305033524.463034 0.682514 6.885011 -5.699591
1305033524.466218 0.478957 7.052646 -5.843279
1305033524.467278 0.478957 7.052646 -5.843279
1305033524.470792 0.682514 7.148437 -5.891174
1305033524.471899 0.682514 7.148437 -5.891174
1305033524.475188 0.682514 7.220281 -5.939070
1305033524.476171 0.682514 7.220281 -5.939070
1305033524.479774 0.778306 7.052646 -6.082757
1305033524.480943 0.778306 7.052646 -6.082757
1305033524.482042 0.778306 7.052646 -6.082757
1305033524.483172 0.778306 7.052646 -6.082757
1305033524.486315 0.778306 7.244229 -5.939070
1305033524.487280 0.778306 7.244229 -5.939070
1305033524.490916 0.862123 7.244229 -6.082757
1305033524.491902 0.862123 7.244229 -6.082757
1305033524.495171 0.778306 7.244229 -5.939070
1305033524.496295 0.778306 7.244229 -5.939070
1305033524.499776 0.862123 7.244229 -5.915122
1305033524.500795 0.862123 7.244229 -5.915122
1305033524.502062 0.862123 7.244229 -5.915122
1305033524.503071 0.862123 7.244229 -5.915122
1305033524.506298 0.862123 7.340020 -5.903148
1305033524.507269 0.862123 7.340020 -5.903148
1305033524.510957 0.682514 7.435812 -5.891174
1305033524.511907 0.682514 7.435812 -5.891174
1305033524.515170 0.682514 7.340020 -6.082757
1305033524.516169 0.682514 7.340020 -6.082757
1305033524.519805 0.682514 7.435812 -6.274340
1305033524.520785 0.682514 7.435812 -6.274340
1305033524.522061 0.682514 7.435812 -6.274340
1305033524.523033 0.682514 7.435812 -6.274340
1305033524.526280 0.574749 7.435812 -5.986966
1305033524.527314 0.574749 7.435812 -5.986966
1305033524.530942 0.478957 7.627394 -5.915122
1305033524.532061 0.478957 7.627394 -5.915122
1305033524.535188 0.478957 7.723186 -5.891174
1305033524.536174 0.478957 7.723186 -5.891174
1305033524.539773 0.478957 7.818977 -5.843279
1305033524.540808 0.478957 7.818977 -5.843279
1305033524.542043 0.478957 7.818977 -5.843279
1305033524.543064 0.478957 7.818977 -5.843279
1305033524.546315 0.526853 7.818977 -5.891174
1305033524.547280 0.526853 7.818977 -5.891174
1305033524.550799 0.478957 7.818977 -5.795383
1305033524.551897 0.478957 7.818977 -5.795383
1305033524.555158 0.682514 7.723186 -5.891174
1305033524.556159 0.682514 7.723186 -5.891174
1305033524.559773 0.682514 7.818977 -5.795383
1305033524.560781 0.682514 7.818977 -5.795383
1305033524.562025 0.682514 7.818977 -5.795383
1305033524.562990 0.682514 7.818977 -5.795383
1305033524.566315 0.574749 8.010560 -6.082757
1305033524.567280 0.574749 8.010560 -6.082757
1305033524.570944 0.478957 7.998586 -6.250392
1305033524.571904 0.478957 7.998586 -6.250392
1305033524.575187 0.526853 7.818977 -6.178549
1305033524.576180 0.526853 7.818977 -6.178549
1305033524.579774 0.682514 7.914769 -6.274340
1305033524.580942 0.682514 7.914769 -6.274340
1305033524.582046 0.682514 7.914769 -6.274340
1305033524.583047 0.682514 7.914769 -6.274340
1305033524.586342 0.682514 7.914769 -6.274340
1305033524.587283 0.682514 7.914769 -6.274340
1305033524.590916 0.682514 7.818977 -6.178549
1305033524.591907 0.682514 7.818977 -6.178549
1305033524.595159 0.682514 7.818977 -6.082757
1305033524.596172 0.682514 7.818977 -6.082757
1305033524.599776 0.778306 7.818977 -6.178549
1305033524.600797 0.778306 7.818977 -6.178549
1305033524.602045 0.778306 7.818977 -6.178549
1305033524.603048 0.778306 7.818977 -6.178549
1305033524.606201 0.778306 7.675290 -6.226444
1305033524.607161 0.778306 7.675290 -6.226444
1305033524.610973 0.682514 7.627394 -6.250392
1305033524.611950 0.682514 7.627394 -6.250392
1305033524.615174 0.826201 7.818977 -5.986966
1305033524.616312 0.826201 7.818977 -5.986966
1305033524.619806 0.826201 7.627394 -6.082757
1305033524.620783 0.826201 7.627394 -6.082757
1305033524.622063 0.826201 7.627394 -6.082757
1305033524.623068 0.826201 7.627394 -6.082757
1305033524.626160 0.682514 7.627394 -6.082757
1305033524.627172 0.682514 7.627394 -6.082757
1305033524.630799 0.826201 7.603447 -6.178549
1305033524.631898 0.826201 7.603447 -6.178549
1305033524.635050 0.682514 7.603447 -6.274340
1305033524.636187 0.682514 7.603447 -6.274340
1305033524.637298 0.682514 7.603447 -6.274340
1305033524.638467 0.682514 7.603447 -6.274340
1305033524.642062 0.574749 7.627394 -6.274340
1305033524.643065 0.574749 7.627394 -6.274340
1305033524.646170 0.778306 7.627394 -6.322236
1305033524.647278 0.778306 7.627394 -6.322236
1305033524.650814 0.682514 7.603447 -6.178549
1305033524.651908 0.682514 7.603447 -6.178549
1305033524.655049 0.682514 7.627394 -6.178549
1305033524.656157 0.682514 7.627394 -6.178549
1305033524.657283 0.682514 7.627394 -6.178549
1305033524.658390 0.682514 7.627394 -6.178549
1305033524.662031 0.862123 7.627394 -5.939070
1305033524.663067 0.862123 7.627394 -5.939070
1305033524.666289 0.862123 7.627394 -6.178549
1305033524.667271 0.862123 7.627394 -6.178549
1305033524.670926 0.862123 7.615421 -6.082757
1305033524.671906 0.862123 7.615421 -6.082757
1305033524.675160 0.778306 7.627394 -5.891174
1305033524.676156 0.778306 7.627394 -5.891174
1305033524.679774 0.886071 7.579499 -6.082757
1305033524.680786 0.886071 7.579499 -6.082757
1305033524.682015 0.886071 7.579499 -6.082757
1305033524.683158 0.886071 7.579499 -6.082757
1305033524.686172 0.862123 7.627394 -6.082757
1305033524.687133 0.862123 7.627394 -6.082757
1305033524.694619 0.862123 7.435812 -6.274340
1305033524.695770 1.053706 7.435812 -6.298288
1305033524.696931 1.053706 7.435812 -6.298288
1305033524.697936 1.053706 7.435812 -6.298288
1305033524.701171 0.862123 7.579499 -6.561715
1305033524.702281 0.862123 7.579499 -6.561715
1305033524.705807 0.778306 7.615421 -6.370132
1305033524.706802 0.778306 7.615421 -6.370132
1305033524.710064 0.910019 7.531603 -6.465923
1305033524.711192 0.910019 7.531603 -6.465923
1305033524.712441 0.910019 7.531603 -6.465923
1305033524.713433 0.910019 7.531603 -6.465923
1305033524.717065 0.957915 7.531603 -6.370132
1305033524.718094 0.957915 7.531603 -6.370132
1305033524.721308 0.957915 7.579499 -6.274340
1305033524.722296 0.957915 7.579499 -6.274340
1305033524.725891 0.862123 7.435812 -6.561715
1305033524.726895 0.862123 7.435812 -6.561715
1305033524.730192 0.862123 7.340020 -6.657506
1305033524.731202 0.862123 7.340020 -6.657506
1305033524.734788 0.862123 7.244229 -6.465923
1305033524.735923 0.862123 7.244229 -6.465923
1305033524.737222 0.862123 7.244229 -6.465923
1305033524.740175 0.862123 7.232255 -6.561715
1305033524.741344 0.862123 7.232255 -6.561715
1305033524.744786 0.862123 7.220281 -6.465923
1305033524.745901 0.862123 7.220281 -6.465923
1305033524.747161 0.862123 7.220281 -6.465923
1305033524.748219 0.862123 7.220281 -6.465923
1305033524.751206 0.862123 7.244229 -6.322236
1305033524.752300 0.862123 7.244229 -6.322236
1305033524.755936 0.778306 7.232255 -6.274340
1305033524.756904 0.778306 7.232255 -6.274340
1305033524.760137 0.862123 7.220281 -6.178549
1305033524.761147 0.862123 7.220281 -6.178549
1305033524.762646 0.862123 7.220281 -6.178549
1305033524.763782 0.862123 7.220281 -6.178549
1305033524.767074 0.862123 7.196333 -6.178549
1305033524.768199 0.862123 7.196333 -6.178549
1305033524.771316 0.862123 7.244229 -6.178549
1305033524.772315 0.862123 7.244229 -6.178549
1305033524.775906 0.778306 7.244229 -6.274340
1305033524.776905 0.778306 7.244229 -6.274340
1305033524.780156 0.778306 7.244229 -6.082757
1305033524.781195 0.778306 7.244229 -6.082757
1305033524.784812 0.682514 7.435812 -6.082757
1305033524.785799 0.682514 7.435812 -6.082757
1305033524.787030 0.682514 7.435812 -6.082757
1305033524.788022 0.682514 7.435812 -6.082757
1305033524.791139 0.778306 7.627394 -6.082757
1305033524.792269 0.778306 7.627394 -6.082757
1305033524.795908 0.778306 7.651342 -6.274340
1305033524.796899 0.778306 7.651342 -6.274340
1305033524.800174 0.682514 7.818977 -6.274340
1305033524.801189 0.682514 7.818977 -6.274340
1305033524.802271 0.682514 7.818977 -6.274340
1305033524.803473 0.682514 7.818977 -6.274340
1305033524.807029 0.682514 7.914769 -6.274340
1305033524.808064 0.682514 7.914769 -6.274340
1305033524.811173 0.682514 8.010560 -6.274340
1305033524.812275 0.682514 8.010560 -6.274340
1305033524.815782 0.778306 7.986612 -6.370132
1305033524.816936 0.778306 7.986612 -6.370132
1305033524.820033 0.574749 8.010560 -6.465923
1305033524.821148 0.574749 8.010560 -6.465923
1305033524.822270 0.574749 8.010560 -6.465923
1305033524.823397 0.574749 8.010560 -6.465923
1305033524.826913 0.526853 8.010560 -6.465923
1305033524.828062 0.526853 8.010560 -6.465923
1305033524.831209 0.478957 8.106352 -6.609610
1305033524.832298 0.478957 8.106352 -6.609610
1305033524.835779 0.526853 8.106352 -6.609610
1305033524.836971 0.526853 8.106352 -6.609610
1305033524.840188 0.478957 8.022534 -6.609610
1305033524.841190 0.478957 8.022534 -6.609610
1305033524.842422 0.478957 8.022534 -6.609610
1305033524.843444 0.478957 8.022534 -6.609610
1305033524.846968 0.287374 8.058456 -6.465923
1305033524.848062 0.287374 8.058456 -6.465923
1305033524.851318 0.478957 8.010560 -6.705402
1305033524.852298 0.478957 8.010560 -6.705402
1305033524.855906 0.478957 7.998586 -6.465923
1305033524.856901 0.478957 7.998586 -6.465923
1305033524.860147 0.466983 7.914769 -6.465923
1305033524.861144 0.466983 7.914769 -6.465923
1305033524.864781 0.478957 7.818977 -6.226444
1305033524.865798 0.478957 7.818977 -6.226444
1305033524.867064 0.478957 7.818977 -6.226444
1305033524.868052 0.478957 7.818977 -6.226444
1305033524.871316 0.478957 7.627394 -6.274340
1305033524.872314 0.478957 7.627394 -6.274340
1305033524.875899 0.478957 7.723186 -6.274340
1305033524.876920 0.478957 7.723186 -6.274340
1305033524.880189 0.682514 7.627394 -6.370132
1305033524.881218 0.682514 7.627394 -6.370132
1305033524.884786 0.478957 7.651342 -6.298288
1305033524.885796 0.478957 7.651342 -6.298288
1305033524.887053 0.478957 7.651342 -6.298288
1305033524.888030 0.478957 7.651342 -6.298288
1305033524.891300 0.682514 7.627394 -6.465923
1305033524.892268 0.682514 7.627394 -6.465923
1305033524.895903 0.778306 7.627394 -6.465923
1305033524.896950 0.778306 7.627394 -6.465923
1305033524.900168 0.682514 7.675290 -6.633558
1305033524.901296 0.682514 7.675290 -6.633558
1305033524.904786 0.502905 7.818977 -6.657506
1305033524.905801 0.502905 7.818977 -6.657506
1305033524.907068 0.502905 7.818977 -6.657506
1305033524.908188 0.502905 7.818977 -6.657506
1305033524.911198 0.574749 7.962665 -6.657506
1305033524.912317 0.574749 7.962665 -6.657506
1305033524.915929 0.478957 7.914769 -6.753297
1305033524.916941 0.478957 7.914769 -6.753297
1305033524.920195 0.478957 8.010560 -6.465923
1305033524.921148 0.478957 8.010560 -6.465923
1305033524.922647 0.478957 8.010560 -6.465923
1305033524.923775 0.478957 8.010560 -6.465923
1305033524.927050 0.478957 7.818977 -6.657506
1305033524.928180 0.478957 7.818977 -6.657506
1305033524.931203 0.466983 7.675290 -6.657506
1305033524.932299 0.466983 7.675290 -6.657506
1305033524.935909 0.443035 7.818977 -6.609610
1305033524.936929 0.443035 7.818977 -6.609610
1305033524.940192 0.478957 7.627394 -6.657506
1305033524.941193 0.478957 7.627394 -6.657506
1305033524.944814 0.478957 7.603447 -6.465923
1305033524.945800 0.478957 7.603447 -6.465923
1305033524.947067 0.478957 7.603447 -6.465923
1305033524.948103 0.478957 7.603447 -6.465923
1305033524.951346 0.478957 7.579499 -6.322236
1305033524.952320 0.478957 7.579499 -6.322236
1305033524.955899 0.574749 7.579499 -6.561715
1305033524.956896 0.574749 7.579499 -6.561715
1305033524.960147 0.478957 7.627394 -6.370132
1305033524.961148 0.478957 7.627394 -6.370132
1305033524.964791 0.443035 7.435812 -6.274340
1305033524.965797 0.443035 7.435812 -6.274340
1305033524.967093 0.443035 7.435812 -6.274340
1305033524.968189 0.443035 7.435812 -6.274340
1305033524.971354 0.443035 7.435812 -6.274340
1305033524.972314 0.443035 7.435812 -6.274340
1305033524.975911 0.478957 7.615421 -6.082757
1305033524.976895 0.478957 7.615421 -6.082757
1305033524.980200 0.395140 7.531603 -6.082757
1305033524.981174 0.395140 7.531603 -6.082757
1305033524.984810 0.395140 7.435812 -5.939070
1305033524.985774 0.395140 7.435812 -5.939070
1305033524.987058 0.395140 7.435812 -5.939070
1305033524.988032 0.395140 7.435812 -5.939070
1305033524.991178 0.478957 7.435812 -5.986966
1305033524.992302 0.478957 7.435812 -5.986966
1305033524.995933 0.478957 7.435812 -5.939070
1305033524.996951 0.478957 7.435812 -5.939070
1305033525.000171 0.287374 7.292124 -6.082757
1305033525.001171 0.287374 7.292124 -6.082757
1305033525.004817 0.191583 7.244229 -6.274340
1305033525.005796 0.191583 7.244229 -6.274340
1305033525.007065 0.191583 7.244229 -6.274340
1305033525.008186 0.191583 7.244229 -6.274340
1305033525.011315 0.119739 7.256203 -6.274340
1305033525.012352 0.119739 7.256203 -6.274340
1305033525.015922 0.143687 7.244229 -6.178549
1305033525.016923 0.143687 7.244229 -6.178549
1305033525.020190 0.287374 7.220281 -6.082757
1305033525.021199 0.287374 7.220281 -6.082757
1305033525.024805 0.287374 7.052646 -6.226444
1305033525.025765 0.287374 7.052646 -6.226444
1305033525.027022 0.287374 7.052646 -6.226444
1305033525.028176 0.287374 7.052646 -6.226444
1305033525.031271 0.191583 7.052646 -6.274340
1305033525.032352 0.191583 7.052646 -6.274340
1305033525.035930 0.191583 7.196333 -6.274340
1305033525.036924 0.191583 7.196333 -6.274340
1305033525.040315 0.287374 7.196333 -5.903148
1305033525.041344 0.287374 7.196333 -5.903148
1305033525.044902 0.443035 7.244229 -6.274340
1305033525.045939 0.443035 7.244229 -6.274340
1305033525.047197 0.443035 7.244229 -6.274340
1305033525.048201 0.443035 7.244229 -6.274340
1305033525.051337 0.478957 7.196333 -6.298288
1305033525.052298 0.478957 7.196333 -6.298288
1305033525.055900 0.287374 7.244229 -6.178549
1305033525.056897 0.287374 7.244229 -6.178549
1305033525.060149 0.287374 7.244229 -6.274340
1305033525.061147 0.287374 7.244229 -6.274340
1305033525.064845 0.287374 7.244229 -6.274340
1305033525.065776 0.287374 7.244229 -6.274340
1305033525.066800 0.287374 7.244229 -6.274340
1305033525.070200 0.287374 7.268176 -6.082757
1305033525.071192 0.287374 7.268176 -6.082757
1305033525.074787 0.107765 7.292124 -6.178549
1305033525.075775 0.107765 7.292124 -6.178549
1305033525.077026 0.107765 7.292124 -6.178549
1305033525.078070 0.107765 7.292124 -6.178549
1305033525.081354 0.287374 7.268176 -6.082757
1305033525.082298 0.287374 7.268176 -6.082757
1305033525.085938 0.191583 7.292124 -5.939070
1305033525.086945 0.191583 7.292124 -5.939070
1305033525.090021 0.287374 7.435812 -6.082757
1305033525.091144 0.287374 7.435812 -6.082757
1305033525.094780 0.478957 7.340020 -5.891174
1305033525.095805 0.478957 7.340020 -5.891174
1305033525.096942 0.478957 7.340020 -5.891174
1305033525.100192 0.478957 7.340020 -5.986966
1305033525.101183 0.478957 7.340020 -5.986966
1305033525.104819 0.287374 7.340020 -6.226444
1305033525.105792 0.287374 7.340020 -6.226444
1305033525.107073 0.287374 7.340020 -6.226444
1305033525.108189 0.287374 7.340020 -6.226444
1305033525.111355 0.191583 7.435812 -6.274340
1305033525.112337 0.191583 7.435812 -6.274340
1305033525.115913 0.287374 7.435812 -6.274340
1305033525.116922 0.287374 7.435812 -6.274340
1305033525.120189 0.191583 7.292124 -6.298288
1305033525.121213 0.191583 7.292124 -6.298288
1305033525.124780 0.191583 7.340020 -6.274340
1305033525.125767 0.191583 7.340020 -6.274340
1305033525.127018 0.191583 7.340020 -6.274340
1305033525.128021 0.191583 7.340020 -6.274340
1305033525.131179 0.107765 7.340020 -6.274340
1305033525.132296 0.107765 7.340020 -6.274340
1305033525.135892 0.107765 7.435812 -6.298288
1305033525.136938 0.107765 7.435812 -6.298288
1305033525.140201 0.095791 7.340020 -6.274340
1305033525.141169 0.095791 7.340020 -6.274340
1305033525.144817 0.107765 7.435812 -6.274340
1305033525.145773 0.107765 7.435812 -6.274340
1305033525.147050 0.107765 7.435812 -6.274340
1305033525.148188 0.107765 7.435812 -6.274340
1305033525.151207 0.143687 7.531603 -6.274340
1305033525.152313 0.143687 7.531603 -6.274340
1305033525.155911 0.107765 7.579499 -5.939070
1305033525.156898 0.107765 7.579499 -5.939070
1305033525.160151 0.191583 7.579499 -5.891174
1305033525.161142 0.191583 7.579499 -5.891174
1305033525.164788 0.287374 7.531603 -6.178549
1305033525.165797 0.287374 7.531603 -6.178549
1305033525.167066 0.287374 7.531603 -6.178549
1305033525.168192 0.287374 7.531603 -6.178549
1305033525.171353 0.287374 7.435812 -6.262366
1305033525.172356 0.287374 7.435812 -6.262366
1305033525.175907 0.287374 7.340020 -6.178549
1305033525.176922 0.287374 7.340020 -6.178549
1305033525.180176 0.191583 7.340020 -6.082757
1305033525.181206 0.191583 7.340020 -6.082757
1305033525.182727 0.191583 7.340020 -6.082757
1305033525.183777 0.191583 7.340020 -6.082757
1305033525.187103 0.107765 7.435812 -6.082757
1305033525.188027 0.107765 7.435812 -6.082757
1305033525.191272 0.107765 7.435812 -5.891174
1305033525.192276 0.107765 7.435812 -5.891174
1305033525.195919 0.287374 7.340020 -6.178549
1305033525.197067 0.287374 7.340020 -6.178549
1305033525.200172 0.107765 7.435812 -5.986966
1305033525.201317 0.107765 7.435812 -5.986966
1305033525.204948 0.107765 7.579499 -5.891174
1305033525.205941 0.107765 7.579499 -5.891174
1305033525.207190 0.107765 7.579499 -5.891174
1305033525.208189 0.107765 7.579499 -5.891174
1305033525.211353 0.191583 7.579499 -6.082757
1305033525.212345 0.191583 7.579499 -6.082757
1305033525.215929 0.191583 7.627394 -5.903148
1305033525.216924 0.191583 7.627394 -5.903148
1305033525.220189 0.287374 7.627394 -5.891174
1305033525.221206 0.287374 7.627394 -5.891174
1305033525.224809 0.443035 7.627394 -5.891174
1305033525.225771 0.443035 7.627394 -5.891174
1305033525.227024 0.443035 7.627394 -5.891174
1305033525.228144 0.443035 7.627394 -5.891174
1305033525.231320 0.287374 7.675290 -5.843279
1305033525.232352 0.287374 7.675290 -5.843279
1305033525.235930 0.443035 7.627394 -5.986966
1305033525.236951 0.443035 7.627394 -5.986966
1305033525.240173 0.287374 7.627394 -5.986966
1305033525.241160 0.287374 7.627394 -5.986966
1305033525.244817 0.287374 7.579499 -6.250392
1305033525.245776 0.287374 7.579499 -6.250392
1305033525.247049 0.287374 7.579499 -6.250392
1305033525.248189 0.287374 7.579499 -6.250392
1305033525.251211 0.287374 7.579499 -6.322236
1305033525.252351 0.287374 7.579499 -6.322236
1305033525.255911 0.287374 7.531603 -6.465923
1305033525.256891 0.287374 7.531603 -6.465923
1305033525.260152 0.287374 7.579499 -6.274340
1305033525.261144 0.287374 7.579499 -6.274340
1305033525.264796 0.287374 7.627394 -6.178549
1305033525.265780 0.287374 7.627394 -6.178549
1305033525.267021 0.287374 7.627394 -6.178549
1305033525.268156 0.287374 7.627394 -6.178549
1305033525.271317 0.191583 7.627394 -6.178549
1305033525.272315 0.191583 7.627394 -6.178549
1305033525.275919 0.143687 7.627394 -6.082757
1305033525.276926 0.143687 7.627394 -6.082757
1305033525.280195 0.287374 7.651342 -5.891174
1305033525.281186 0.287374 7.651342 -5.891174
1305033525.284813 0.287374 7.675290 -5.795383
1305033525.285937 0.287374 7.675290 -5.795383
1305033525.286944 0.287374 7.675290 -5.795383
1305033525.290145 0.191583 7.723186 -5.699591
1305033525.291146 0.191583 7.723186 -5.699591
1305033525.294816 0.287374 7.627394 -5.699591
1305033525.295806 0.287374 7.627394 -5.699591
1305033525.297070 0.287374 7.627394 -5.699591
1305033525.298171 0.287374 7.627394 -5.699591
1305033525.301316 0.107765 7.723186 -5.508009
1305033525.302320 0.107765 7.723186 -5.508009
1305033525.305942 0.191583 7.627394 -5.484061
1305033525.306924 0.191583 7.627394 -5.484061
1305033525.310190 0.478957 7.579499 -5.412217
1305033525.311233 0.478957 7.579499 -5.412217
1305033525.314852 0.287374 7.627394 -5.508009
1305033525.315907 0.287374 7.627394 -5.508009
1305033525.316926 0.287374 7.627394 -5.508009
1305033525.320150 0.143687 7.675290 -5.508009
1305033525.321175 0.143687 7.675290 -5.508009
1305033525.324812 0.287374 7.627394 -5.508009
1305033525.325773 0.287374 7.627394 -5.508009
1305033525.327027 0.287374 7.627394 -5.508009
1305033525.328145 0.287374 7.627394 -5.508009
1305033525.331159 0.478957 7.627394 -5.699591
1305033525.332348 0.478957 7.627394 -5.699591
1305033525.335929 0.466983 7.603447 -5.699591
1305033525.336941 0.466983 7.603447 -5.699591
1305033525.340192 0.191583 7.723186 -5.699591
1305033525.341175 0.191583 7.723186 -5.699591
1305033525.344826 0.191583 7.651342 -5.891174
1305033525.345801 0.191583 7.651342 -5.891174
1305033525.347053 0.191583 7.651342 -5.891174
1305033525.348176 0.191583 7.651342 -5.891174
1305033525.351318 0.395140 7.627394 -5.939070
1305033525.352361 0.395140 7.627394 -5.939070
1305033525.355940 0.191583 7.818977 -6.082757
1305033525.356851 0.191583 7.818977 -6.082757
1305033525.360103 0.287374 7.914769 -6.082757
1305033525.361101 0.287374 7.914769 -6.082757
1305033525.364810 0.287374 8.010560 -5.699591
1305033525.365800 0.287374 8.010560 -5.699591
1305033525.367048 0.287374 8.010560 -5.699591
1305033525.368174 0.287374 8.010560 -5.699591
1305033525.371355 0.443035 7.914769 -5.891174
1305033525.372334 0.443035 7.914769 -5.891174
1305033525.375911 0.287374 7.962665 -5.795383
1305033525.376939 0.287374 7.962665 -5.795383
1305033525.380194 0.287374 7.818977 -5.891174
1305033525.381226 0.287374 7.818977 -5.891174
1305033525.382691 0.287374 7.818977 -5.891174
1305033525.383778 0.287374 7.818977 -5.891174
1305033525.387047 0.490931 7.914769 -5.699591
1305033525.388152 0.490931 7.914769 -5.699591
1305033525.391147 0.478957 7.962665 -5.603800
1305033525.392269 0.478957 7.962665 -5.603800
1305033525.395966 0.478957 8.010560 -5.699591
1305033525.396951 0.478957 8.010560 -5.699591
1305033525.400194 0.490931 7.914769 -5.699591
1305033525.401177 0.490931 7.914769 -5.699591
1305033525.404861 0.478957 7.818977 -5.699591
1305033525.405780 0.478957 7.818977 -5.699591
1305033525.407068 0.478957 7.818977 -5.699591
1305033525.408190 0.478957 7.818977 -5.699591
1305033525.411341 0.526853 7.651342 -5.915122
1305033525.412442 0.526853 7.651342 -5.915122
1305033525.415923 0.502905 7.818977 -5.891174
1305033525.416922 0.502905 7.818977 -5.891174
1305033525.420189 0.287374 7.723186 -5.891174
1305033525.421174 0.287374 7.723186 -5.891174
1305033525.424768 0.478957 7.627394 -5.867226
1305033525.425771 0.478957 7.627394 -5.867226
1305033525.427024 0.478957 7.627394 -5.867226
1305033525.428019 0.478957 7.627394 -5.867226
1305033525.431206 0.574749 7.675290 -5.891174
1305033525.432297 0.574749 7.675290 -5.891174
1305033525.435786 0.478957 7.675290 -5.795383
1305033525.436930 0.478957 7.675290 -5.795383
1305033525.440192 0.478957 7.627394 -5.795383
1305033525.441194 0.478957 7.627394 -5.795383
1305033525.442296 0.478957 7.627394 -5.795383
1305033525.443441 0.478957 7.627394 -5.795383
1305033525.447066 0.478957 7.627394 -5.795383
1305033525.448065 0.478957 7.627394 -5.795383
1305033525.451318 0.478957 7.651342 -5.603800
1305033525.452300 0.478957 7.651342 -5.603800
1305033525.455910 0.490931 7.723186 -5.795383
1305033525.456897 0.490931 7.723186 -5.795383
1305033525.460140 0.574749 7.603447 -5.699591
1305033525.461138 0.574749 7.603447 -5.699591
1305033525.462645 0.574749 7.603447 -5.699591
1305033525.463780 0.574749 7.603447 -5.699591
1305033525.467030 0.574749 7.435812 -5.699591
1305033525.468189 0.574749 7.435812 -5.699591
1305033525.471220 0.682514 7.531603 -5.891174
1305033525.472316 0.682514 7.531603 -5.891174
1305033525.475901 0.682514 7.579499 -5.891174
1305033525.476925 0.682514 7.579499 -5.891174
1305033525.480190 0.526853 7.627394 -5.891174
1305033525.481191 0.526853 7.627394 -5.891174
1305033525.484817 0.682514 7.627394 -5.891174
1305033525.485768 0.682514 7.627394 -5.891174
1305033525.487067 0.682514 7.627394 -5.891174
1305033525.488165 0.682514 7.627394 -5.891174
1305033525.491277 0.826201 7.531603 -6.082757
1305033525.492271 0.826201 7.531603 -6.082757
1305033525.495906 0.682514 7.627394 -6.082757
1305033525.496971 0.682514 7.627394 -6.082757
1305033525.500175 0.682514 7.627394 -5.891174
1305033525.501319 0.682514 7.627394 -5.891174
1305033525.504790 0.862123 7.627394 -5.986966
1305033525.505795 0.862123 7.627394 -5.986966
1305033525.507052 0.862123 7.627394 -5.986966
1305033525.508174 0.862123 7.627394 -5.986966
1305033525.511213 0.526853 7.651342 -5.891174
1305033525.512301 0.526853 7.651342 -5.891174
1305033525.515900 0.682514 7.818977 -5.699591
1305033525.516973 0.682514 7.818977 -5.699591
1305033525.520192 0.526853 7.818977 -5.795383
1305033525.521225 0.526853 7.818977 -5.795383
1305033525.524772 0.574749 7.723186 -5.891174
1305033525.525773 0.574749 7.723186 -5.891174
1305033525.527028 0.574749 7.723186 -5.891174
1305033525.528021 0.574749 7.723186 -5.891174
1305033525.531186 0.682514 7.818977 -5.939070
1305033525.532320 0.682514 7.818977 -5.939070
1305033525.535907 0.574749 7.914769 -5.891174
1305033525.536953 0.574749 7.914769 -5.891174
1305033525.540194 0.526853 7.914769 -5.891174
1305033525.541165 0.526853 7.914769 -5.891174
1305033525.544802 0.574749 8.010560 -5.699591
1305033525.545787 0.574749 8.010560 -5.699591
1305033525.547029 0.574749 8.010560 -5.699591
1305033525.548172 0.574749 8.010560 -5.699591
1305033525.551353 0.478957 7.998586 -5.879200
1305033525.552338 0.478957 7.998586 -5.879200
1305033525.555909 0.682514 8.010560 -5.843279
1305033525.556897 0.682514 8.010560 -5.843279
1305033525.560150 0.478957 8.010560 -5.891174
1305033525.561143 0.478957 8.010560 -5.891174
1305033525.564835 0.478957 7.962665 -5.795383
1305033525.565800 0.478957 7.962665 -5.795383
1305033525.567068 0.478957 7.962665 -5.795383
1305033525.568193 0.478957 7.962665 -5.795383
1305033525.571165 0.478957 7.914769 -5.843279
1305033525.572303 0.478957 7.914769 -5.843279
1305033525.575925 0.478957 7.818977 -6.178549
1305033525.576920 0.478957 7.818977 -6.178549
1305033525.580197 0.478957 7.675290 -5.939070
1305033525.581354 0.478957 7.675290 -5.939070
1305033525.584941 0.502905 7.675290 -6.178549
1305033525.585942 0.502905 7.675290 -6.178549
1305033525.587191 0.502905 7.675290 -6.178549
1305033525.588151 0.502905 7.675290 -6.178549
1305033525.591273 0.287374 7.723186 -5.986966
1305033525.592271 0.287374 7.723186 -5.986966
1305033525.595915 0.478957 7.818977 -6.262366
1305033525.596933 0.478957 7.818977 -6.262366
1305033525.600334 0.478957 7.914769 -5.843279
1305033525.601317 0.478957 7.914769 -5.843279
1305033525.604930 0.574749 7.914769 -5.891174
1305033525.605947 0.574749 7.914769 -5.891174
1305033525.607170 0.574749 7.914769 -5.891174
1305033525.608191 0.574749 7.914769 -5.891174
1305033525.611349 0.682514 8.010560 -5.603800
1305033525.612351 0.682514 8.010560 -5.603800
1305033525.615930 0.862123 7.914769 -5.508009
1305033525.616946 0.862123 7.914769 -5.508009
1305033525.620194 0.778306 7.818977 -5.508009
1305033525.621194 0.778306 7.818977 -5.508009
1305033525.624776 0.682514 7.818977 -5.699591
1305033525.625770 0.682514 7.818977 -5.699591
1305033525.627023 0.682514 7.818977 -5.699591
1305033525.628020 0.682514 7.818977 -5.699591
1305033525.631287 0.526853 7.675290 -5.986966
1305033525.632320 0.526853 7.675290 -5.986966
1305033525.635913 0.526853 7.627394 -5.891174
1305033525.636909 0.526853 7.627394 -5.891174
1305033525.640153 0.490931 7.627394 -6.082757
1305033525.641179 0.490931 7.627394 -6.082757
1305033525.644815 0.682514 7.579499 -6.274340
1305033525.645803 0.682514 7.579499 -6.274340
1305033525.647068 0.682514 7.579499 -6.274340
1305033525.648191 0.682514 7.579499 -6.274340
1305033525.651176 0.778306 7.435812 -6.370132
1305033525.652299 0.778306 7.435812 -6.370132
1305033525.655912 0.682514 7.531603 -6.322236
1305033525.656901 0.682514 7.531603 -6.322236
1305033525.660149 0.478957 7.627394 -6.274340
1305033525.661147 0.478957 7.627394 -6.274340
1305033525.664793 0.682514 7.579499 -6.178549
1305033525.665801 0.682514 7.579499 -6.178549
1305033525.667052 0.682514 7.579499 -6.178549
1305033525.668194 0.682514 7.579499 -6.178549
1305033525.671294 0.574749 7.627394 -5.891174
1305033525.672302 0.574749 7.627394 -5.891174
1305033525.675893 0.862123 7.651342 -5.891174
1305033525.676937 0.862123 7.651342 -5.891174
1305033525.680194 0.682514 7.818977 -5.891174
1305033525.681250 0.682514 7.818977 -5.891174
1305033525.682691 0.682514 7.818977 -5.891174
1305033525.685937 0.682514 7.818977 -5.699591
1305033525.686970 0.682514 7.818977 -5.699591
1305033525.690150 0.862123 7.627394 -5.891174
1305033525.691175 0.862123 7.627394 -5.891174
1305033525.694762 0.682514 7.627394 -5.795383
1305033525.695911 0.682514 7.627394 -5.795383
1305033525.697262 0.682514 7.627394 -5.795383
1305033525.698175 0.682514 7.627394 -5.795383
1305033525.701319 0.682514 7.627394 -5.891174
1305033525.702316 0.682514 7.627394 -5.891174
1305033525.705927 0.682514 7.615421 -5.891174
1305033525.706923 0.682514 7.615421 -5.891174
1305033525.710175 0.682514 7.435812 -5.986966
1305033525.711204 0.682514 7.435812 -5.986966
1305033525.714791 0.682514 7.435812 -6.082757
1305033525.715778 0.682514 7.435812 -6.082757
1305033525.717072 0.682514 7.435812 -6.082757
1305033525.718044 0.682514 7.435812 -6.082757
1305033525.721319 0.778306 7.579499 -5.915122
1305033525.722302 0.778306 7.579499 -5.915122
1305033525.725904 0.862123 7.531603 -6.178549
1305033525.726925 0.862123 7.531603 -6.178549
1305033525.730148 0.826201 7.627394 -5.891174
1305033525.731179 0.826201 7.627394 -5.891174
1305033525.734790 0.826201 7.723186 -5.879200
1305033525.735909 0.826201 7.723186 -5.879200
1305033525.737158 0.826201 7.723186 -5.879200
1305033525.738192 0.826201 7.723186 -5.879200
1305033525.741358 0.778306 7.818977 -5.915122
1305033525.742345 0.778306 7.818977 -5.915122
1305033525.745803 0.862123 7.723186 -5.915122
1305033525.746946 0.862123 7.723186 -5.915122
1305033525.750199 0.862123 7.627394 -5.891174
1305033525.751177 0.862123 7.627394 -5.891174
1305033525.754711 0.826201 7.579499 -5.699591
1305033525.755781 0.826201 7.579499 -5.699591
1305033525.757033 0.826201 7.579499 -5.699591
1305033525.758020 0.826201 7.579499 -5.699591
1305033525.761282 0.778306 7.627394 -5.795383
1305033525.762276 0.778306 7.627394 -5.795383
1305033525.765944 0.682514 7.627394 -5.699591
1305033525.766926 0.682514 7.627394 -5.699591
1305033525.770191 0.682514 7.603447 -5.519982
1305033525.771160 0.682514 7.603447 -5.519982
1305033525.774825 0.682514 7.627394 -5.519982
1305033525.775777 0.682514 7.627394 -5.519982
1305033525.777034 0.682514 7.627394 -5.519982
1305033525.778030 0.682514 7.627394 -5.519982
1305033525.781320 0.682514 7.435812 -5.603800
1305033525.782281 0.682514 7.435812 -5.603800
1305033525.785936 0.778306 7.340020 -5.699591
1305033525.786950 0.778306 7.340020 -5.699591
1305033525.790148 0.682514 7.435812 -5.508009
1305033525.791175 0.682514 7.435812 -5.508009
1305033525.794775 0.574749 7.615421 -5.508009
1305033525.795931 0.574749 7.615421 -5.508009
1305033525.797194 0.574749 7.615421 -5.508009
1305033525.798189 0.574749 7.615421 -5.508009
1305033525.801318 0.574749 7.627394 -5.555904
1305033525.802298 0.574749 7.627394 -5.555904
1305033525.805943 0.574749 7.627394 -5.508009
1305033525.806947 0.574749 7.627394 -5.508009
1305033525.810193 0.682514 7.723186 -5.699591
1305033525.811207 0.682514 7.723186 -5.699591
1305033525.814827 0.682514 7.723186 -5.699591
1305033525.815908 0.682514 7.723186 -5.699591
1305033525.817049 0.682514 7.723186 -5.699591
1305033525.818189 0.682514 7.723186 -5.699591
1305033525.821319 0.478957 7.986612 -5.795383
1305033525.822344 0.478957 7.986612 -5.795383
1305033525.825902 0.478957 7.962665 -5.891174
1305033525.826901 0.478957 7.962665 -5.891174
1305033525.830150 0.478957 7.986612 -5.939070
1305033525.831197 0.478957 7.986612 -5.939070
1305033525.834694 0.466983 8.058456 -5.903148
1305033525.835778 0.466983 8.058456 -5.903148
1305033525.837068 0.466983 8.058456 -5.903148
1305033525.838034 0.466983 8.058456 -5.903148
1305033525.841362 0.478957 8.010560 -5.939070
1305033525.842316 0.478957 8.010560 -5.939070
1305033525.845942 0.443035 7.818977 -6.274340
1305033525.846951 0.443035 7.818977 -6.274340
1305033525.850190 0.478957 7.914769 -6.274340
1305033525.851206 0.478957 7.914769 -6.274340
1305033525.854827 0.478957 7.986612 -6.082757
1305033525.855901 0.478957 7.986612 -6.082757
1305033525.857025 0.478957 7.986612 -6.082757
1305033525.858020 0.478957 7.986612 -6.082757
1305033525.861274 0.478957 7.962665 -6.274340
1305033525.862273 0.478957 7.962665 -6.274340
1305033525.865915 0.478957 7.914769 -6.274340
1305033525.866913 0.478957 7.914769 -6.274340
1305033525.870160 0.478957 7.986612 -6.178549
1305033525.871194 0.478957 7.986612 -6.178549
1305033525.874801 0.478957 7.914769 -6.262366
1305033525.875778 0.478957 7.914769 -6.262366
1305033525.877052 0.478957 7.914769 -6.262366
1305033525.878031 0.478957 7.914769 -6.262366
1305033525.881355 0.574749 8.010560 -6.274340
1305033525.882336 0.574749 8.010560 -6.274340
1305033525.885799 0.395140 8.010560 -6.274340
1305033525.886925 0.395140 8.010560 -6.274340
1305033525.890152 0.574749 8.010560 -6.274340
1305033525.891148 0.574749 8.010560 -6.274340
1305033525.894651 0.502905 8.058456 -6.274340
1305033525.895934 0.502905 8.058456 -6.274340
1305033525.896908 0.502905 8.058456 -6.274340
1305033525.900192 0.478957 8.034508 -6.178549
1305033525.901191 0.478957 8.034508 -6.178549
1305033525.902690 0.478957 8.034508 -6.178549
1305033525.903780 0.478957 8.034508 -6.178549
1305033525.907055 0.478957 8.202143 -6.178549
1305033525.908048 0.478957 8.202143 -6.178549
1305033525.911152 0.478957 8.106352 -6.226444
1305033525.912359 0.478957 8.106352 -6.226444
1305033525.915909 0.478957 8.202143 -5.986966
1305033525.916935 0.478957 8.202143 -5.986966
1305033525.920192 0.574749 8.034508 -6.178549
1305033525.921207 0.574749 8.034508 -6.178549
1305033525.924811 0.574749 8.010560 -5.986966
1305033525.925870 0.574749 8.010560 -5.986966
1305033525.927024 0.574749 8.010560 -5.986966
1305033525.928011 0.574749 8.010560 -5.986966
1305033525.931150 0.478957 7.986612 -5.891174
1305033525.932320 0.478957 7.986612 -5.891174
1305033525.935906 0.502905 7.986612 -5.939070
1305033525.936930 0.502905 7.986612 -5.939070
1305033525.940176 0.682514 7.627394 -5.891174
1305033525.941156 0.682514 7.627394 -5.891174
1305033525.944816 0.778306 7.723186 -5.891174
1305033525.945777 0.778306 7.723186 -5.891174
1305033525.947022 0.778306 7.723186 -5.891174
1305033525.948191 0.778306 7.723186 -5.891174
1305033525.951322 0.574749 7.627394 -6.082757
1305033525.952320 0.574749 7.627394 -6.082757
1305033525.955904 0.682514 7.627394 -6.082757
1305033525.956901 0.682514 7.627394 -6.082757
1305033525.960151 0.478957 7.627394 -6.082757
1305033525.961149 0.478957 7.627394 -6.082757
1305033525.964795 0.478957 7.627394 -5.843279
1305033525.965770 0.478957 7.627394 -5.843279
1305033525.967061 0.478957 7.627394 -5.843279
1305033525.968071 0.478957 7.627394 -5.843279
1305033525.971318 0.574749 7.627394 -5.891174
1305033525.972318 0.574749 7.627394 -5.891174
1305033525.975930 0.466983 7.651342 -5.699591
1305033525.976946 0.466983 7.651342 -5.699591
1305033525.980203 0.478957 7.627394 -5.699591
1305033525.981204 0.478957 7.627394 -5.699591
1305033525.982692 0.478957 7.627394 -5.699591
1305033525.983778 0.478957 7.627394 -5.699591
1305033525.987077 0.443035 7.914769 -5.699591
1305033525.988173 0.443035 7.914769 -5.699591
1305033525.991147 0.478957 7.818977 -5.699591
1305033525.992271 0.478957 7.818977 -5.699591
1305033525.995940 0.526853 7.723186 -5.699591
1305033525.996934 0.526853 7.723186 -5.699591
1305033526.000948 0.574749 7.818977 -5.508009
1305033526.001785 0.574749 7.818977 -5.508009
1305033526.002800 0.574749 7.818977 -5.508009
1305033526.006047 0.478957 7.914769 -5.508009
1305033526.007185 0.478957 7.914769 -5.508009
1305033526.010445 0.478957 7.818977 -5.508009
1305033526.011461 0.478957 7.818977 -5.508009
1305033526.015096 0.478957 7.627394 -5.843279
1305033526.016206 0.478957 7.627394 -5.843279
1305033526.017282 0.478957 7.627394 -5.843279
1305033526.018469 0.478957 7.627394 -5.843279
1305033526.021909 0.574749 7.627394 -5.891174
1305033526.023055 0.574749 7.627394 -5.891174
1305033526.026308 0.478957 7.818977 -5.843279
1305033526.027273 0.478957 7.818977 -5.843279
1305033526.030792 0.478957 7.818977 -5.867226
1305033526.031970 0.478957 7.818977 -5.867226
1305033526.035175 0.443035 7.627394 -5.891174
1305033526.036191 0.443035 7.627394 -5.891174
1305033526.039814 0.478957 7.627394 -5.891174
1305033526.040860 0.478957 7.627394 -5.891174
1305033526.042036 0.478957 7.627394 -5.891174
1305033526.043072 0.478957 7.627394 -5.891174
1305033526.046191 0.478957 7.675290 -5.891174
1305033526.047317 0.478957 7.675290 -5.891174
1305033526.050800 0.574749 7.675290 -5.986966
1305033526.051774 0.574749 7.675290 -5.986966
1305033526.055104 0.574749 7.818977 -5.891174
1305033526.056151 0.574749 7.818977 -5.891174
1305033526.057277 0.574749 7.818977 -5.891174
1305033526.058273 0.574749 7.818977 -5.891174
1305033526.061898 0.526853 7.914769 -5.891174
1305033526.062901 0.526853 7.914769 -5.891174
1305033526.066225 0.682514 7.818977 -5.915122
1305033526.067228 0.682514 7.818977 -5.915122
1305033526.070803 0.574749 7.914769 -5.795383
1305033526.071905 0.574749 7.914769 -5.795383
1305033526.075192 0.574749 7.914769 -5.891174
1305033526.076220 0.574749 7.914769 -5.891174
1305033526.079812 0.526853 8.010560 -5.699591
1305033526.080819 0.526853 8.010560 -5.699591
1305033526.082067 0.526853 8.010560 -5.699591
1305033526.083050 0.526853 8.010560 -5.699591
1305033526.086346 0.574749 8.010560 -5.891174
1305033526.087329 0.574749 8.010560 -5.891174
1305033526.090928 0.682514 8.010560 -5.891174
1305033526.091900 0.682514 8.010560 -5.891174
1305033526.095229 0.574749 8.010560 -5.891174
1305033526.096183 0.574749 8.010560 -5.891174
1305033526.099782 0.502905 8.010560 -5.891174
1305033526.100823 0.502905 8.010560 -5.891174
1305033526.102049 0.502905 8.010560 -5.891174
1305033526.103069 0.502905 8.010560 -5.891174
1305033526.106175 0.574749 8.010560 -5.939070
1305033526.107287 0.574749 8.010560 -5.939070
1305033526.110816 0.682514 7.914769 -6.082757
1305033526.111990 0.682514 7.914769 -6.082757
1305033526.115236 0.574749 8.010560 -5.891174
1305033526.116204 0.574749 8.010560 -5.891174
1305033526.119780 0.478957 8.010560 -6.082757
1305033526.120949 0.478957 8.010560 -6.082757
1305033526.122077 0.478957 8.010560 -6.082757
1305033526.123177 0.478957 8.010560 -6.082757
1305033526.126308 0.478957 8.010560 -5.891174
1305033526.127277 0.478957 8.010560 -5.891174
1305033526.130911 0.478957 8.034508 -5.699591
1305033526.131933 0.478957 8.034508 -5.699591
1305033526.135206 0.574749 8.010560 -5.891174
1305033526.136317 0.574749 8.010560 -5.891174
1305033526.139779 0.502905 8.010560 -5.699591
1305033526.140949 0.502905 8.010560 -5.699591
1305033526.142066 0.502905 8.010560 -5.699591
1305033526.143222 0.502905 8.010560 -5.699591
1305033526.146317 0.478957 8.202143 -5.603800
1305033526.147275 0.478957 8.202143 -5.603800
1305033526.150928 0.682514 8.106352 -5.843279
1305033526.152064 0.682514 8.106352 -5.843279
1305033526.155262 0.478957 8.202143 -5.891174
1305033526.156155 0.478957 8.202143 -5.891174
1305033526.159788 0.682514 8.034508 -5.915122
1305033526.160776 0.682514 8.034508 -5.915122
1305033526.162023 0.682514 8.034508 -5.915122
1305033526.163025 0.682514 8.034508 -5.915122
1305033526.166225 0.574749 8.010560 -5.939070
1305033526.167288 0.574749 8.010560 -5.939070
1305033526.170804 0.478957 8.058456 -5.891174
1305033526.171925 0.478957 8.058456 -5.891174
1305033526.175075 0.502905 8.010560 -5.891174
1305033526.176220 0.502905 8.010560 -5.891174
1305033526.177285 0.502905 8.010560 -5.891174
1305033526.178460 0.502905 8.010560 -5.891174
1305033526.182094 0.502905 8.034508 -5.915122
1305033526.183069 0.502905 8.034508 -5.915122
1305033526.186174 0.502905 8.202143 -5.986966
1305033526.187183 0.502905 8.202143 -5.986966
1305033526.190776 0.478957 8.034508 -5.986966
1305033526.191927 0.478957 8.034508 -5.986966
1305033526.195063 0.478957 8.010560 -5.879200
1305033526.196194 0.478957 8.010560 -5.879200
1305033526.197287 0.478957 8.010560 -5.879200
1305033526.198445 0.478957 8.010560 -5.879200
1305033526.201923 0.526853 8.010560 -5.891174
1305033526.203070 0.526853 8.010560 -5.891174
1305033526.206166 0.574749 7.962665 -5.986966
1305033526.207298 0.574749 7.962665 -5.986966
1305033526.210830 0.574749 7.962665 -5.939070
1305033526.211937 0.574749 7.962665 -5.939070
1305033526.215196 0.682514 7.818977 -6.082757
1305033526.216177 0.682514 7.818977 -6.082757
1305033526.219777 0.574749 7.818977 -5.879200
1305033526.220817 0.574749 7.818977 -5.879200
1305033526.222069 0.574749 7.818977 -5.879200
1305033526.223076 0.574749 7.818977 -5.879200
1305033526.226283 0.778306 7.723186 -6.274340
1305033526.227276 0.778306 7.723186 -6.274340
1305033526.230965 0.526853 7.818977 -6.082757
1305033526.231933 0.526853 7.818977 -6.082757
1305033526.235225 0.478957 7.818977 -5.986966
1305033526.236181 0.478957 7.818977 -5.986966
1305033526.239778 0.526853 7.627394 -6.082757
1305033526.240817 0.526853 7.627394 -6.082757
1305033526.242032 0.526853 7.627394 -6.082757
1305033526.243093 0.526853 7.627394 -6.082757
1305033526.246286 0.574749 7.818977 -6.082757
1305033526.247283 0.574749 7.818977 -6.082757
1305033526.250961 0.502905 7.675290 -6.274340
1305033526.251924 0.502905 7.675290 -6.274340
1305033526.255224 0.478957 7.627394 -6.082757
1305033526.256156 0.478957 7.627394 -6.082757
1305033526.259853 0.502905 7.675290 -5.986966
1305033526.260728 0.502905 7.675290 -5.986966
1305033526.261977 0.502905 7.675290 -5.986966
1305033526.263037 0.502905 7.675290 -5.986966
1305033526.266346 0.574749 7.723186 -6.178549
1305033526.267274 0.574749 7.723186 -6.178549
1305033526.270945 0.526853 7.818977 -5.939070
1305033526.271930 0.526853 7.818977 -5.939070
1305033526.275195 0.478957 7.675290 -5.891174
1305033526.276194 0.478957 7.675290 -5.891174
1305033526.279813 0.478957 7.627394 -5.891174
1305033526.280931 0.478957 7.627394 -5.891174
1305033526.281984 0.478957 7.627394 -5.891174
1305033526.285199 0.478957 7.818977 -5.891174
1305033526.286187 0.478957 7.818977 -5.891174
1305033526.289778 0.478957 7.818977 -5.867226
1305033526.290801 0.478957 7.818977 -5.867226
1305033526.291908 0.478957 7.818977 -5.867226
1305033526.295025 0.478957 7.818977 -5.891174
1305033526.296148 0.478957 7.818977 -5.891174
1305033526.299782 0.478957 7.723186 -5.603800
1305033526.300820 0.478957 7.723186 -5.603800
1305033526.302050 0.478957 7.723186 -5.603800
1305033526.303066 0.478957 7.723186 -5.603800
1305033526.306203 0.478957 7.962665 -5.699591
1305033526.307271 0.478957 7.962665 -5.699591
1305033526.310802 0.478957 7.723186 -5.603800
1305033526.311925 0.478957 7.723186 -5.603800
1305033526.315049 0.395140 7.818977 -5.699591
1305033526.316200 0.395140 7.818977 -5.699591
1305033526.317797 0.395140 7.818977 -5.699591
1305033526.320945 0.526853 7.723186 -5.699591
1305033526.321954 0.526853 7.723186 -5.699591
1305033526.325191 0.526853 7.675290 -5.555904
1305033526.326156 0.526853 7.675290 -5.555904
1305033526.329897 0.478957 7.651342 -5.795383
1305033526.330952 0.478957 7.651342 -5.795383
1305033526.332175 0.478957 7.651342 -5.795383
1305033526.333195 0.478957 7.651342 -5.795383
1305033526.336283 0.526853 7.627394 -5.891174
1305033526.337274 0.526853 7.627394 -5.891174
1305033526.340948 0.478957 7.723186 -5.795383
1305033526.341925 0.478957 7.723186 -5.795383
1305033526.345193 0.478957 7.675290 -5.795383
1305033526.346199 0.478957 7.675290 -5.795383
1305033526.347782 0.478957 7.675290 -5.795383
1305033526.350928 0.478957 7.723186 -5.891174
1305033526.352029 0.478957 7.723186 -5.891174
1305033526.355229 0.682514 7.627394 -5.891174
1305033526.356163 0.682514 7.627394 -5.891174
1305033526.359977 0.478957 7.818977 -5.891174
1305033526.360926 0.478957 7.818977 -5.891174
1305033526.361894 0.478957 7.818977 -5.891174
1305033526.365350 0.526853 7.675290 -6.082757
1305033526.366318 0.526853 7.675290 -6.082757
1305033526.369804 0.574749 7.675290 -5.986966
1305033526.370801 0.574749 7.675290 -5.986966
1305033526.372176 0.574749 7.675290 -5.986966
1305033526.373193 0.574749 7.675290 -5.986966
1305033526.376319 0.574749 7.818977 -5.891174
1305033526.377280 0.574749 7.818977 -5.891174
1305033526.380950 0.682514 7.818977 -5.939070
1305033526.381946 0.682514 7.818977 -5.939070
1305033526.385181 0.778306 7.675290 -6.082757
1305033526.386174 0.778306 7.675290 -6.082757
1305033526.389779 0.526853 7.651342 -5.891174
1305033526.390800 0.526853 7.651342 -5.891174
1305033526.392030 0.526853 7.651342 -5.891174
1305033526.393153 0.526853 7.651342 -5.891174
1305033526.396276 0.682514 7.818977 -5.939070
1305033526.397264 0.682514 7.818977 -5.939070
1305033526.400931 0.682514 7.818977 -6.178549
1305033526.401926 0.682514 7.818977 -6.178549
1305033526.405179 0.478957 7.723186 -5.903148
1305033526.406314 0.478957 7.723186 -5.903148
1305033526.409802 0.490931 7.962665 -6.082757
1305033526.410945 0.490931 7.962665 -6.082757
1305033526.412231 0.490931 7.962665 -6.082757
1305033526.413236 0.490931 7.962665 -6.082757
1305033526.416319 0.478957 7.818977 -5.891174
1305033526.417283 0.478957 7.818977 -5.891174
1305033526.420802 0.490931 7.818977 -5.891174
1305033526.421809 0.490931 7.818977 -5.891174
1305033526.425151 0.478957 8.010560 -5.891174
1305033526.426148 0.478957 8.010560 -5.891174
1305033526.427275 0.478957 8.010560 -5.891174
1305033526.428775 0.478957 8.010560 -5.891174
1305033526.432055 0.862123 8.010560 -6.082757
1305033526.433053 0.862123 8.010560 -6.082757
1305033526.436303 0.862123 7.914769 -6.226444
1305033526.437289 0.862123 7.914769 -6.226444
1305033526.440802 0.862123 7.962665 -6.226444
1305033526.441941 0.862123 7.962665 -6.226444
1305033526.445056 0.682514 8.010560 -6.274340
1305033526.446189 0.682514 8.010560 -6.274340
1305033526.447320 0.682514 8.010560 -6.274340
1305033526.448464 0.682514 8.010560 -6.274340
1305033526.451988 0.826201 8.010560 -6.262366
1305033526.453068 0.826201 8.010560 -6.262366
1305033526.456159 0.682514 8.034508 -6.178549
1305033526.457264 0.682514 8.034508 -6.178549
1305033526.460778 0.682514 8.010560 -6.082757
1305033526.461899 0.682514 8.010560 -6.082757
1305033526.465020 0.502905 8.010560 -6.274340
1305033526.466190 0.502905 8.010560 -6.274340
1305033526.467419 0.502905 8.010560 -6.274340
1305033526.468658 0.502905 8.010560 -6.274340
1305033526.472074 0.682514 8.010560 -6.226444
1305033526.473054 0.682514 8.010560 -6.226444
1305033526.476318 0.502905 8.010560 -6.178549
1305033526.477276 0.502905 8.010560 -6.178549
1305033526.480948 0.478957 7.818977 -6.082757
1305033526.481974 0.478957 7.818977 -6.082757
1305033526.485082 0.502905 8.010560 -6.274340
1305033526.486032 0.502905 8.010560 -6.274340
1305033526.487279 0.502905 8.010560 -6.274340
1305033526.488470 0.502905 8.010560 -6.274340
1305033526.491935 0.526853 7.818977 -6.178549
1305033526.493027 0.526853 7.818977 -6.178549
1305033526.496151 0.574749 7.651342 -5.986966
1305033526.497275 0.574749 7.651342 -5.986966
1305033526.500805 0.574749 7.627394 -5.986966
1305033526.501778 0.574749 7.627394 -5.986966
1305033526.505193 0.478957 7.723186 -5.891174
1305033526.506190 0.478957 7.723186 -5.891174
1305033526.507414 0.478957 7.723186 -5.891174
1305033526.508821 0.478957 7.723186 -5.891174
1305033526.512055 0.526853 7.627394 -5.699591
1305033526.513072 0.526853 7.627394 -5.699591
1305033526.516329 0.478957 7.627394 -5.795383
1305033526.517353 0.478957 7.627394 -5.795383
1305033526.520957 0.574749 7.435812 -5.603800
1305033526.521926 0.574749 7.435812 -5.603800
1305033526.525292 0.478957 7.627394 -5.220634
1305033526.526309 0.478957 7.627394 -5.220634
1305033526.529901 0.682514 7.435812 -5.484061
1305033526.530915 0.682514 7.435812 -5.484061
1305033526.532174 0.682514 7.435812 -5.484061
1305033526.533319 0.682514 7.435812 -5.484061
1305033526.536304 0.502905 7.639368 -5.316426
1305033526.537336 0.502905 7.639368 -5.316426
1305033526.540947 0.490931 7.675290 -5.172738
1305033526.541946 0.490931 7.675290 -5.172738
1305033526.545208 0.526853 7.627394 -5.412217
1305033526.546178 0.526853 7.627394 -5.412217
1305033526.549801 0.478957 7.651342 -5.508009
1305033526.550949 0.478957 7.651342 -5.508009
1305033526.552157 0.478957 7.651342 -5.508009
1305033526.553181 0.478957 7.651342 -5.508009
1305033526.556280 0.682514 7.675290 -5.699591
1305033526.557275 0.682514 7.675290 -5.699591
1305033526.560780 0.478957 7.818977 -5.891174
1305033526.561897 0.478957 7.818977 -5.891174
1305033526.565099 0.682514 7.818977 -5.867226
1305033526.566058 0.682514 7.818977 -5.867226
1305033526.567298 0.682514 7.818977 -5.867226
1305033526.568467 0.682514 7.818977 -5.867226
1305033526.571907 0.466983 7.818977 -5.843279
1305033526.573052 0.466983 7.818977 -5.843279
1305033526.576345 0.478957 7.651342 -5.986966
1305033526.577281 0.478957 7.651342 -5.986966
1305033526.580948 0.443035 7.818977 -6.262366
1305033526.581983 0.443035 7.818977 -6.262366
1305033526.585191 0.395140 7.651342 -5.939070
1305033526.586179 0.395140 7.651342 -5.939070
1305033526.589801 0.287374 7.639368 -6.082757
1305033526.590949 0.287374 7.639368 -6.082757
1305033526.592157 0.287374 7.639368 -6.082757
1305033526.593179 0.287374 7.639368 -6.082757
1305033526.596272 0.478957 7.615421 -6.262366
1305033526.597268 0.478957 7.615421 -6.262366
1305033526.600955 0.478957 7.627394 -6.082757
1305033526.601928 0.478957 7.627394 -6.082757
1305033526.605221 0.478957 7.627394 -6.082757
1305033526.606194 0.478957 7.627394 -6.082757
1305033526.607643 0.478957 7.627394 -6.082757
1305033526.608820 0.478957 7.627394 -6.082757
1305033526.612039 0.682514 7.603447 -6.178549
1305033526.613088 0.682514 7.603447 -6.178549
1305033526.616347 0.478957 7.675290 -5.891174
1305033526.617371 0.478957 7.675290 -5.891174
1305033526.620945 0.478957 7.675290 -5.891174
1305033526.621943 0.478957 7.675290 -5.891174
1305033526.625034 0.478957 7.818977 -5.843279
1305033526.626184 0.478957 7.818977 -5.843279
1305033526.627273 0.478957 7.818977 -5.843279
1305033526.628774 0.478957 7.818977 -5.843279
1305033526.632036 0.574749 7.627394 -6.082757
1305033526.633031 0.574749 7.627394 -6.082757
1305033526.636317 0.502905 7.818977 -5.915122
1305033526.637306 0.502905 7.818977 -5.915122
1305033526.640960 0.478957 7.818977 -6.082757
1305033526.641941 0.478957 7.818977 -6.082757
1305033526.645195 0.478957 7.723186 -5.891174
1305033526.646177 0.478957 7.723186 -5.891174
1305033526.649822 0.395140 7.818977 -6.082757
1305033526.650961 0.395140 7.818977 -6.082757
1305033526.652192 0.395140 7.818977 -6.082757
1305033526.653214 0.395140 7.818977 -6.082757
1305033526.656285 0.287374 7.651342 -6.082757
1305033526.657275 0.287374 7.651342 -6.082757
1305033526.660923 0.287374 7.723186 -6.082757
1305033526.661944 0.287374 7.723186 -6.082757
1305033526.665193 0.478957 7.675290 -6.178549
1305033526.666180 0.478957 7.675290 -6.178549
1305033526.667288 0.478957 7.675290 -6.178549
1305033526.668819 0.478957 7.675290 -6.178549
1305033526.672069 0.478957 7.627394 -6.082757
1305033526.673074 0.478957 7.627394 -6.082757
1305033526.676328 0.287374 7.675290 -5.891174
1305033526.677323 0.287374 7.675290 -5.891174
1305033526.680916 0.395140 7.615421 -5.795383
1305033526.681944 0.395140 7.615421 -5.795383
1305033526.685178 0.478957 7.531603 -5.891174
1305033526.686177 0.478957 7.531603 -5.891174
1305033526.689941 0.287374 7.627394 -5.519982
1305033526.690948 0.287374 7.627394 -5.519982
1305033526.692162 0.287374 7.627394 -5.519982
1305033526.693162 0.287374 7.627394 -5.519982
1305033526.696285 0.478957 7.639368 -5.699591
1305033526.697287 0.478957 7.639368 -5.699591
1305033526.700946 0.574749 7.579499 -5.891174
1305033526.701926 0.574749 7.579499 -5.891174
1305033526.705235 0.574749 7.435812 -5.879200
1305033526.706180 0.574749 7.435812 -5.879200
1305033526.709803 0.478957 7.531603 -5.699591
1305033526.710965 0.478957 7.531603 -5.699591
1305033526.712179 0.478957 7.531603 -5.699591
1305033526.713231 0.478957 7.531603 -5.699591
1305033526.716320 0.682514 7.435812 -5.891174
1305033526.717291 0.682514 7.435812 -5.891174
1305033526.720948 0.502905 7.435812 -5.891174
1305033526.721929 0.502905 7.435812 -5.891174
1305033526.725166 0.478957 7.340020 -5.915122
1305033526.726159 0.478957 7.340020 -5.915122
1305033526.729795 0.478957 7.244229 -6.082757
1305033526.730968 0.478957 7.244229 -6.082757
1305033526.732179 0.478957 7.244229 -6.082757
1305033526.733175 0.478957 7.244229 -6.082757
1305033526.736300 0.287374 7.244229 -6.082757
1305033526.737342 0.287374 7.244229 -6.082757
1305033526.740948 0.287374 7.244229 -6.274340
1305033526.741946 0.287374 7.244229 -6.274340
1305033526.745221 0.395140 7.244229 -6.274340
1305033526.746237 0.395140 7.244229 -6.274340
1305033526.747788 0.395140 7.244229 -6.274340
1305033526.750929 0.466983 7.196333 -6.274340
1305033526.751912 0.466983 7.196333 -6.274340
1305033526.755232 0.395140 7.148437 -6.082757
1305033526.756160 0.395140 7.148437 -6.082757
1305033526.759776 0.478957 7.052646 -6.178549
1305033526.760789 0.478957 7.052646 -6.178549
1305033526.762038 0.478957 7.052646 -6.178549
1305033526.763167 0.478957 7.052646 -6.178549
1305033526.766348 0.478957 7.052646 -5.891174
1305033526.767286 0.478957 7.052646 -5.891174
1305033526.770949 0.443035 7.052646 -5.891174
1305033526.771907 0.443035 7.052646 -5.891174
1305033526.775227 0.191583 7.244229 -5.843279
1305033526.776346 0.191583 7.244229 -5.843279
1305033526.779780 0.478957 7.244229 -5.699591
1305033526.780951 0.478957 7.244229 -5.699591
1305033526.782055 0.478957 7.244229 -5.699591
1305033526.783083 0.478957 7.244229 -5.699591
1305033526.786173 0.478957 7.268176 -5.699591
1305033526.787289 0.478957 7.268176 -5.699591
1305033526.790950 0.478957 7.435812 -5.508009
1305033526.791915 0.478957 7.435812 -5.508009
1305033526.795162 0.395140 7.531603 -5.412217
1305033526.796163 0.395140 7.531603 -5.412217
1305033526.799783 0.478957 7.603447 -5.508009
1305033526.800826 0.478957 7.603447 -5.508009
1305033526.802052 0.478957 7.603447 -5.508009
1305033526.803069 0.478957 7.603447 -5.508009
1305033526.806320 0.478957 7.627394 -5.531956
1305033526.807287 0.478957 7.627394 -5.531956
1305033526.810959 0.478957 7.627394 -5.699591
1305033526.811928 0.478957 7.627394 -5.699591
1305033526.815199 0.287374 7.627394 -5.699591
1305033526.816177 0.287374 7.627394 -5.699591
1305033526.819782 0.478957 7.627394 -5.891174
1305033526.820800 0.478957 7.627394 -5.891174
1305033526.822071 0.478957 7.627394 -5.891174
1305033526.823030 0.478957 7.627394 -5.891174
1305033526.826164 0.478957 7.627394 -5.939070
1305033526.827275 0.478957 7.627394 -5.939070
1305033526.830967 0.478957 7.627394 -6.465923
1305033526.832071 0.478957 7.627394 -6.465923
1305033526.835193 0.478957 7.435812 -6.657506
1305033526.836301 0.478957 7.435812 -6.657506
1305033526.839781 0.682514 7.340020 -6.753297
1305033526.840990 0.682514 7.340020 -6.753297
1305033526.842049 0.682514 7.340020 -6.753297
1305033526.843037 0.682514 7.340020 -6.753297
1305033526.846318 0.395140 7.435812 -6.849089
1305033526.847306 0.395140 7.435812 -6.849089
1305033526.850960 0.478957 7.435812 -6.849089
1305033526.851927 0.478957 7.435812 -6.849089
1305033526.855224 0.395140 7.435812 -6.657506
1305033526.856163 0.395140 7.435812 -6.657506
1305033526.859773 0.478957 7.435812 -6.657506
1305033526.860790 0.478957 7.435812 -6.657506
1305033526.862072 0.478957 7.435812 -6.657506
1305033526.863197 0.478957 7.435812 -6.657506
1305033526.866310 0.478957 7.531603 -6.561715
1305033526.867319 0.478957 7.531603 -6.561715
1305033526.870963 0.443035 7.627394 -6.561715
1305033526.871930 0.443035 7.627394 -6.561715
1305033526.875163 0.395140 7.723186 -6.465923
1305033526.876194 0.395140 7.723186 -6.465923
1305033526.879780 0.478957 7.639368 -6.370132
1305033526.880821 0.478957 7.639368 -6.370132
1305033526.882070 0.478957 7.639368 -6.370132
1305033526.883053 0.478957 7.639368 -6.370132
1305033526.886328 0.478957 7.675290 -6.178549
1305033526.887321 0.478957 7.675290 -6.178549
1305033526.890992 0.778306 7.675290 -5.903148
1305033526.891919 0.778306 7.675290 -5.903148
1305033526.895165 0.778306 7.723186 -5.891174
1305033526.896163 0.778306 7.723186 -5.891174
1305033526.899783 0.778306 7.723186 -5.891174
1305033526.900803 0.778306 7.723186 -5.891174
1305033526.902072 0.778306 7.723186 -5.891174
1305033526.903054 0.778306 7.723186 -5.891174
1305033526.906349 0.682514 7.818977 -5.699591
1305033526.907292 0.682514 7.818977 -5.699591
1305033526.910946 0.826201 7.914769 -5.843279
1305033526.911929 0.826201 7.914769 -5.843279
1305033526.915237 0.826201 8.010560 -5.603800
1305033526.916319 0.826201 8.010560 -5.603800
1305033526.919787 0.778306 8.022534 -5.508009
1305033526.920973 0.778306 8.022534 -5.508009
1305033526.922057 0.778306 8.022534 -5.508009
1305033526.923321 0.778306 8.022534 -5.508009
1305033526.926292 0.886071 8.010560 -5.891174
1305033526.927292 0.886071 8.010560 -5.891174
1305033526.930948 0.682514 8.010560 -5.603800
1305033526.932055 0.682514 8.010560 -5.603800
1305033526.935197 0.778306 8.010560 -5.986966
1305033526.936316 0.778306 8.010560 -5.986966
1305033526.939780 0.862123 8.010560 -5.891174
1305033526.940963 0.862123 8.010560 -5.891174
1305033526.942192 0.862123 8.010560 -5.891174
1305033526.943151 0.862123 8.010560 -5.891174
1305033526.946319 0.850149 7.914769 -6.274340
1305033526.947307 0.850149 7.914769 -6.274340
1305033526.950943 0.826201 7.914769 -6.274340
1305033526.952070 0.826201 7.914769 -6.274340
1305033526.955222 0.862123 7.627394 -6.465923
1305033526.956286 0.862123 7.627394 -6.465923
1305033526.959914 0.862123 7.531603 -6.465923
1305033526.960933 0.862123 7.531603 -6.465923
1305033526.962166 0.862123 7.531603 -6.465923
1305033526.963197 0.862123 7.531603 -6.465923
1305033526.966178 0.862123 7.435812 -6.465923
1305033526.967320 0.862123 7.435812 -6.465923
1305033526.970802 0.682514 7.435812 -6.274340
1305033526.971930 0.682514 7.435812 -6.274340
1305033526.975225 0.850149 7.244229 -6.274340
1305033526.976195 0.850149 7.244229 -6.274340
1305033526.979785 0.778306 7.244229 -6.226444
1305033526.980803 0.778306 7.244229 -6.226444
1305033526.982071 0.778306 7.244229 -6.226444
1305033526.983074 0.778306 7.244229 -6.226444
1305033526.986319 0.850149 7.052646 -5.986966
1305033526.987286 0.850149 7.052646 -5.986966
1305033526.990957 0.886071 6.885011 -6.082757
1305033526.991918 0.886071 6.885011 -6.082757
1305033526.995197 0.850149 6.861063 -6.082757
1305033526.996164 0.850149 6.861063 -6.082757
1305033526.999784 0.862123 6.861063 -5.939070
1305033527.000805 0.862123 6.861063 -5.939070
1305033527.002071 0.862123 6.861063 -5.939070
1305033527.003073 0.862123 6.861063 -5.939070
1305033527.006211 0.862123 6.885011 -5.986966
1305033527.007307 0.862123 6.885011 -5.986966
1305033527.010963 0.850149 7.052646 -5.867226
1305033527.011915 0.850149 7.052646 -5.867226
1305033527.015197 0.862123 7.148437 -5.891174
1305033527.016206 0.862123 7.148437 -5.891174
1305033527.019782 0.910019 7.052646 -5.867226
1305033527.020804 0.910019 7.052646 -5.867226
1305033527.022069 0.910019 7.052646 -5.867226
1305033527.023055 0.910019 7.052646 -5.867226
1305033527.026174 0.862123 7.244229 -5.699591
1305033527.027289 0.862123 7.244229 -5.699591
1305033527.030808 0.957915 7.292124 -5.699591
1305033527.031916 0.957915 7.292124 -5.699591
1305033527.035167 1.053706 7.244229 -5.795383
1305033527.036195 1.053706 7.244229 -5.795383
1305033527.037661 1.053706 7.244229 -5.795383
1305033527.038821 1.053706 7.244229 -5.795383
1305033527.042051 0.957915 7.435812 -5.867226
1305033527.043246 0.957915 7.435812 -5.867226
1305033527.046181 0.957915 7.435812 -5.939070
1305033527.047289 0.957915 7.435812 -5.939070
1305033527.050961 1.053706 7.531603 -6.178549
1305033527.051915 1.053706 7.531603 -6.178549
1305033527.055234 0.862123 7.627394 -6.226444
1305033527.056170 0.862123 7.627394 -6.226444
1305033527.059781 1.053706 7.627394 -6.322236
1305033527.060938 1.053706 7.627394 -6.322236
1305033527.061915 1.053706 7.627394 -6.322236
1305033527.065153 0.957915 7.627394 -6.465923
1305033527.066160 0.957915 7.627394 -6.465923
1305033527.069912 1.053706 7.435812 -6.645532
1305033527.070966 1.053706 7.435812 -6.645532
1305033527.072195 1.053706 7.435812 -6.645532
1305033527.073196 1.053706 7.435812 -6.645532
1305033527.076333 0.957915 7.627394 -6.657506
1305033527.077283 0.957915 7.627394 -6.657506
1305033527.080958 0.862123 7.818977 -6.561715
1305033527.081948 0.862123 7.818977 -6.561715
1305033527.085166 1.053706 7.675290 -6.465923
1305033527.086195 1.053706 7.675290 -6.465923
1305033527.089817 1.161471 7.639368 -6.465923
1305033527.090802 1.161471 7.639368 -6.465923
1305033527.092040 1.161471 7.639368 -6.465923
1305033527.093164 1.161471 7.639368 -6.465923
1305033527.096294 1.053706 7.818977 -6.465923
1305033527.097289 1.053706 7.818977 -6.465923
1305033527.100951 1.053706 7.818977 -6.561715
1305033527.101942 1.053706 7.818977 -6.561715
1305033527.105196 1.257263 7.818977 -6.657506
1305033527.106221 1.257263 7.818977 -6.657506
1305033527.109807 1.245289 7.818977 -6.274340
1305033527.110835 1.245289 7.818977 -6.274340
1305033527.112056 1.245289 7.818977 -6.274340
1305033527.113196 1.245289 7.818977 -6.274340
1305033527.116271 1.209367 7.818977 -6.274340
1305033527.117297 1.209367 7.818977 -6.274340
1305033527.120802 1.053706 7.818977 -6.226444
1305033527.121780 1.053706 7.818977 -6.226444
1305033527.125076 0.957915 7.914769 -5.986966
1305033527.126163 0.957915 7.914769 -5.986966
1305033527.127277 0.957915 7.914769 -5.986966
1305033527.128789 0.957915 7.914769 -5.986966
1305033527.132051 1.257263 7.723186 -6.178549
1305033527.133058 1.257263 7.723186 -6.178549
1305033527.136320 1.245289 7.818977 -6.274340
1305033527.137305 1.245289 7.818977 -6.274340
1305033527.140821 1.257263 7.818977 -6.226444
1305033527.141787 1.257263 7.818977 -6.226444
1305033527.145237 1.161471 7.627394 -6.274340
1305033527.146196 1.161471 7.627394 -6.274340
1305033527.147286 1.161471 7.627394 -6.274340
1305033527.148827 1.161471 7.627394 -6.274340
1305033527.152061 1.053706 7.603447 -6.178549
1305033527.153037 1.053706 7.603447 -6.178549
1305033527.156318 1.053706 7.340020 -6.274340
1305033527.157279 1.053706 7.340020 -6.274340
1305033527.160895 0.957915 7.435812 -6.178549
1305033527.161898 0.957915 7.435812 -6.178549
1305033527.165166 0.957915 7.531603 -5.891174
1305033527.166175 0.957915 7.531603 -5.891174
1305033527.169945 1.257263 7.340020 -6.274340
1305033527.170967 1.257263 7.340020 -6.274340
1305033527.172180 1.257263 7.340020 -6.274340
1305033527.173183 1.257263 7.340020 -6.274340
1305033527.176319 1.257263 7.244229 -6.274340
1305033527.177287 1.257263 7.244229 -6.274340
1305033527.180925 1.257263 7.268176 -6.465923
1305033527.181931 1.257263 7.268176 -6.465923
1305033527.185198 1.161471 7.244229 -6.465923
1305033527.186194 1.161471 7.244229 -6.465923
1305033527.189803 1.053706 7.244229 -6.645532
1305033527.190804 1.053706 7.244229 -6.645532
1305033527.192033 1.053706 7.244229 -6.645532
1305033527.193027 1.053706 7.244229 -6.645532
1305033527.196279 0.862123 7.340020 -6.657506
1305033527.197267 0.862123 7.340020 -6.657506
1305033527.200972 0.910019 7.340020 -6.465923
1305033527.201933 0.910019 7.340020 -6.465923
1305033527.205319 1.053706 7.244229 -6.705402
1305033527.206319 1.053706 7.244229 -6.705402
1305033527.209802 1.161471 7.268176 -6.753297
1305033527.210953 1.161471 7.268176 -6.753297
1305033527.212194 1.161471 7.268176 -6.753297
1305033527.213182 1.161471 7.268176 -6.753297
1305033527.216323 1.161471 7.292124 -6.849089
1305033527.217308 1.161471 7.292124 -6.849089
1305033527.220944 1.233315 7.244229 -7.040672
1305033527.221946 1.233315 7.244229 -7.040672
1305033527.225162 1.257263 7.340020 -6.944880
1305033527.226158 1.257263 7.340020 -6.944880
1305033527.229807 1.245289 7.292124 -6.849089
1305033527.230771 1.245289 7.292124 -6.849089
1305033527.232193 1.245289 7.292124 -6.849089
1305033527.233199 1.245289 7.292124 -6.849089
1305033527.236323 1.245289 7.244229 -6.753297
1305033527.237325 1.245289 7.244229 -6.753297
1305033527.240804 1.293185 7.244229 -6.753297
1305033527.241945 1.293185 7.244229 -6.753297
1305033527.245184 1.257263 7.244229 -6.992776
1305033527.246196 1.257263 7.244229 -6.992776
1305033527.247414 1.257263 7.244229 -6.992776
1305033527.248821 1.257263 7.244229 -6.992776
1305033527.252071 1.448846 7.244229 -7.040672
1305033527.253108 1.448846 7.244229 -7.040672
1305033527.256289 1.341080 7.340020 -7.040672
1305033527.257266 1.341080 7.340020 -7.040672
1305033527.260894 1.448846 7.268176 -7.136463
1305033527.261903 1.448846 7.268176 -7.136463
1305033527.265193 1.448846 7.244229 -7.040672
1305033527.266195 1.448846 7.244229 -7.040672
1305033527.269803 1.269237 7.244229 -7.040672
1305033527.270804 1.269237 7.244229 -7.040672
1305033527.272110 1.269237 7.244229 -7.040672
1305033527.273056 1.269237 7.244229 -7.040672
1305033527.276332 1.257263 7.244229 -6.944880
1305033527.277276 1.257263 7.244229 -6.944880
1305033527.280972 1.053706 7.435812 -6.849089
1305033527.281930 1.053706 7.435812 -6.849089
1305033527.285202 1.053706 7.340020 -6.753297
1305033527.286166 1.053706 7.340020 -6.753297
1305033527.289803 0.957915 7.340020 -6.753297
1305033527.290823 0.957915 7.340020 -6.753297
1305033527.292031 0.957915 7.340020 -6.753297
1305033527.293029 0.957915 7.340020 -6.753297
1305033527.296280 0.874097 7.340020 -6.849089
1305033527.297276 0.874097 7.340020 -6.849089
1305033527.300971 0.910019 7.531603 -6.753297
1305033527.301929 0.910019 7.531603 -6.753297
1305033527.305180 0.862123 7.435812 -6.657506
1305033527.306175 0.862123 7.435812 -6.657506
1305033527.309803 0.862123 7.435812 -6.657506
1305033527.310823 0.862123 7.435812 -6.657506
1305033527.312060 0.862123 7.435812 -6.657506
1305033527.313211 0.862123 7.435812 -6.657506
1305033527.316322 0.862123 7.627394 -6.465923
1305033527.317282 0.862123 7.627394 -6.465923
1305033527.320967 0.862123 7.531603 -6.657506
1305033527.321927 0.862123 7.531603 -6.657506
1305033527.325282 0.682514 7.627394 -6.274340
1305033527.326278 0.682514 7.627394 -6.274340
1305033527.329904 0.862123 7.627394 -6.370132
1305033527.330904 0.862123 7.627394 -6.370132
1305033527.332197 0.862123 7.627394 -6.370132
1305033527.333182 0.862123 7.627394 -6.370132
1305033527.336325 0.826201 7.627394 -6.274340
1305033527.337280 0.826201 7.627394 -6.274340
1305033527.340981 0.778306 7.651342 -6.226444
1305033527.341943 0.778306 7.651342 -6.226444
1305033527.345160 0.778306 7.627394 -6.082757
1305033527.346196 0.778306 7.627394 -6.082757
1305033527.347783 0.778306 7.627394 -6.082757
1305033527.350960 0.778306 7.627394 -6.298288
1305033527.352069 0.778306 7.627394 -6.298288
1305033527.355235 0.778306 7.639368 -6.370132
1305033527.356175 0.778306 7.639368 -6.370132
1305033527.359770 0.778306 7.627394 -6.657506
1305033527.360874 0.778306 7.627394 -6.657506
1305033527.362029 0.778306 7.627394 -6.657506
1305033527.363045 0.778306 7.627394 -6.657506
1305033527.366323 0.778306 7.627394 -6.465923
1305033527.367335 0.778306 7.627394 -6.465923
1305033527.370983 0.478957 7.627394 -6.465923
1305033527.371920 0.478957 7.627394 -6.465923
1305033527.375165 0.682514 7.651342 -6.465923
1305033527.376209 0.682514 7.651342 -6.465923
1305033527.379786 0.574749 7.723186 -6.657506
1305033527.380935 0.574749 7.723186 -6.657506
1305033527.382071 0.574749 7.723186 -6.657506
1305033527.383059 0.574749 7.723186 -6.657506
1305033527.386207 0.526853 7.627394 -6.633558
1305033527.387283 0.526853 7.627394 -6.633558
1305033527.390822 0.526853 7.627394 -6.633558
1305033527.391913 0.526853 7.627394 -6.633558
1305033527.395055 0.682514 7.627394 -6.657506
1305033527.396042 0.682514 7.627394 -6.657506
1305033527.397283 0.682514 7.627394 -6.657506
1305033527.398277 0.682514 7.627394 -6.657506
1305033527.402073 0.682514 7.244229 -6.944880
1305033527.403056 0.682514 7.244229 -6.944880
1305033527.406346 0.682514 7.196333 -6.849089
1305033527.407282 0.682514 7.196333 -6.849089
1305033527.410804 0.574749 7.148437 -6.657506
1305033527.411905 0.574749 7.148437 -6.657506
1305033527.415198 0.478957 7.052646 -6.753297
1305033527.416207 0.478957 7.052646 -6.753297
1305033527.419813 0.778306 7.052646 -6.849089
1305033527.420818 0.778306 7.052646 -6.849089
1305033527.422053 0.778306 7.052646 -6.849089
1305033527.423074 0.778306 7.052646 -6.849089
1305033527.426182 0.574749 7.052646 -6.669480
1305033527.427324 0.574749 7.052646 -6.669480
1305033527.430964 0.574749 6.861063 -6.753297
1305033527.431928 0.574749 6.861063 -6.753297
1305033527.435244 0.526853 6.861063 -6.705402
1305033527.436309 0.526853 6.861063 -6.705402
1305033527.439814 0.778306 6.861063 -6.992776
1305033527.440802 0.778306 6.861063 -6.992776
1305033527.442071 0.778306 6.861063 -6.992776
1305033527.443197 0.778306 6.861063 -6.992776
1305033527.446169 0.478957 6.861063 -6.849089
1305033527.447177 0.478957 6.861063 -6.849089
1305033527.450806 0.478957 6.861063 -6.657506
1305033527.451906 0.478957 6.861063 -6.657506
1305033527.455097 0.287374 6.956854 -6.465923
1305033527.456165 0.287374 6.956854 -6.465923
1305033527.457279 0.287374 6.956854 -6.465923
1305033527.458401 0.287374 6.956854 -6.465923
1305033527.461895 0.478957 6.956854 -6.322236
1305033527.463021 0.478957 6.956854 -6.322236
1305033527.466164 0.478957 6.861063 -6.274340
1305033527.467281 0.478957 6.861063 -6.274340
1305033527.470835 0.682514 6.908959 -6.465923
1305033527.471917 0.682514 6.908959 -6.465923
1305033527.475182 0.682514 7.052646 -6.274340
1305033527.476349 0.682514 7.052646 -6.274340
1305033527.479784 0.574749 7.052646 -6.274340
1305033527.480930 0.574749 7.052646 -6.274340
1305033527.482082 0.574749 7.052646 -6.274340
1305033527.483179 0.574749 7.052646 -6.274340
1305033527.486166 0.478957 7.052646 -6.274340
1305033527.487295 0.478957 7.052646 -6.274340
1305033527.490976 0.574749 6.956854 -6.370132
1305033527.491913 0.574749 6.956854 -6.370132
1305033527.495153 0.478957 7.244229 -6.226444
1305033527.496306 0.478957 7.244229 -6.226444
1305033527.500003 0.478957 7.244229 -6.465923
1305033527.501000 0.478957 7.244229 -6.465923
1305033527.502197 0.478957 7.244229 -6.465923
1305033527.503181 0.478957 7.244229 -6.465923
1305033527.506179 0.395140 7.531603 -6.657506
1305033527.507282 0.395140 7.531603 -6.657506
1305033527.510965 0.191583 7.531603 -6.705402
1305033527.511907 0.191583 7.531603 -6.705402
1305033527.515187 0.107765 7.627394 -6.465923
1305033527.516321 0.107765 7.627394 -6.465923
1305033527.519908 0.191583 7.818977 -6.370132
1305033527.520967 0.191583 7.818977 -6.370132
1305033527.522202 0.191583 7.818977 -6.370132
1305033527.523197 0.191583 7.818977 -6.370132
1305033527.526286 0.287374 7.818977 -6.082757
1305033527.527270 0.287374 7.818977 -6.082757
1305033527.530909 0.191583 7.818977 -6.082757
1305033527.531905 0.191583 7.818977 -6.082757
1305033527.535170 0.443035 7.675290 -6.178549
1305033527.536156 0.443035 7.675290 -6.178549
1305033527.539797 0.107765 7.723186 -6.226444
1305033527.540796 0.107765 7.723186 -6.226444
1305033527.542030 0.107765 7.723186 -6.226444
1305033527.543029 0.107765 7.723186 -6.226444
1305033527.546306 0.107765 7.627394 -5.891174
1305033527.547285 0.107765 7.627394 -5.891174
1305033527.550813 0.287374 7.627394 -5.986966
1305033527.551904 0.287374 7.627394 -5.986966
1305033527.555181 0.191583 7.340020 -6.082757
1305033527.556177 0.191583 7.340020 -6.082757
1305033527.559791 0.107765 7.435812 -5.891174
1305033527.560910 0.107765 7.435812 -5.891174
1305033527.562025 0.107765 7.435812 -5.891174
1305033527.563151 0.107765 7.435812 -5.891174
1305033527.566158 0.095791 7.340020 -5.843279
1305033527.567168 0.095791 7.340020 -5.843279
1305033527.570803 0.107765 7.232255 -5.843279
1305033527.571906 0.107765 7.232255 -5.843279
1305033527.575056 0.143687 7.244229 -5.891174
1305033527.576159 0.143687 7.244229 -5.891174
1305033527.577543 0.143687 7.244229 -5.891174
1305033527.578807 0.143687 7.244229 -5.891174
1305033527.582055 0.287374 7.052646 -5.843279
1305033527.583048 0.287374 7.052646 -5.843279
1305033527.586332 0.287374 6.956854 -5.891174
1305033527.587277 0.287374 6.956854 -5.891174
1305033527.590964 0.395140 6.956854 -6.082757
1305033527.591913 0.395140 6.956854 -6.082757
1305033527.595159 0.287374 6.861063 -6.082757
1305033527.596150 0.287374 6.861063 -6.082757
1305033527.599828 0.191583 6.861063 -5.986966
1305033527.600791 0.191583 6.861063 -5.986966
1305033527.602032 0.191583 6.861063 -5.986966
1305033527.603047 0.191583 6.861063 -5.986966
1305033527.606160 0.107765 6.885011 -5.986966
1305033527.607279 0.107765 6.885011 -5.986966
1305033527.610864 0.191583 7.052646 -6.082757
1305033527.611920 0.191583 7.052646 -6.082757
1305033527.615197 0.191583 7.052646 -6.082757
1305033527.616182 0.191583 7.052646 -6.082757
1305033527.619785 0.478957 7.052646 -5.891174
1305033527.620803 0.478957 7.052646 -5.891174
1305033527.622057 0.478957 7.052646 -5.891174
1305033527.623056 0.478957 7.052646 -5.891174
1305033527.626159 0.395140 7.052646 -5.891174
1305033527.627166 0.395140 7.052646 -5.891174
1305033527.630786 0.287374 6.956854 -5.939070
1305033527.631898 0.287374 6.956854 -5.939070
1305033527.635037 0.478957 6.861063 -5.986966
1305033527.636147 0.478957 6.861063 -5.986966
1305033527.639832 0.466983 6.861063 -6.178549
1305033527.640921 0.466983 6.861063 -6.178549
1305033527.641920 0.466983 6.861063 -6.178549
1305033527.645192 0.478957 6.837115 -6.226444
1305033527.646351 0.478957 6.837115 -6.226444
1305033527.649797 0.478957 6.861063 -6.082757
1305033527.650808 0.478957 6.861063 -6.082757
1305033527.652052 0.478957 6.861063 -6.082757
1305033527.653160 0.478957 6.861063 -6.082757
1305033527.656322 0.526853 6.885011 -6.274340
1305033527.657276 0.526853 6.885011 -6.274340
1305033527.660900 0.682514 6.956854 -6.465923
1305033527.661892 0.682514 6.956854 -6.465923
1305033527.665146 0.478957 7.052646 -6.274340
1305033527.666144 0.478957 7.052646 -6.274340
1305033527.669926 0.682514 7.052646 -6.657506
1305033527.670908 0.682514 7.052646 -6.657506
1305033527.672148 0.682514 7.052646 -6.657506
1305033527.673170 0.682514 7.052646 -6.657506
1305033527.676298 0.778306 7.052646 -6.633558
1305033527.677273 0.778306 7.052646 -6.633558
1305033527.680924 0.443035 7.244229 -6.465923
1305033527.681898 0.443035 7.244229 -6.465923
1305033527.685197 0.478957 7.244229 -6.645532
1305033527.686157 0.478957 7.244229 -6.645532
1305033527.689787 0.478957 7.244229 -6.465923
1305033527.690970 0.478957 7.244229 -6.465923
1305033527.692169 0.478957 7.244229 -6.465923
1305033527.693156 0.478957 7.244229 -6.465923
1305033527.696311 0.574749 7.244229 -6.561715
1305033527.697271 0.574749 7.244229 -6.561715
1305033527.700945 0.478957 7.292124 -6.322236
1305033527.701902 0.478957 7.292124 -6.322236
1305033527.705170 0.478957 7.292124 -6.465923
1305033527.706149 0.478957 7.292124 -6.465923
1305033527.709796 0.466983 7.435812 -6.286314
1305033527.710800 0.466983 7.435812 -6.286314
1305033527.712043 0.466983 7.435812 -6.286314
1305033527.713164 0.466983 7.435812 -6.286314
1305033527.716323 0.526853 7.244229 -6.465923
1305033527.717280 0.526853 7.244229 -6.465923
1305033527.720916 0.466983 7.340020 -6.274340
1305033527.721930 0.466983 7.340020 -6.274340
1305033527.725159 0.478957 7.435812 -6.178549
1305033527.726157 0.478957 7.435812 -6.178549
1305033527.729783 0.478957 7.531603 -6.274340
1305033527.730777 0.478957 7.531603 -6.274340
1305033527.732022 0.478957 7.531603 -6.274340
1305033527.733043 0.478957 7.531603 -6.274340
1305033527.736295 0.526853 7.627394 -6.082757
1305033527.737298 0.526853 7.627394 -6.082757
1305033527.740973 0.478957 7.639368 -5.939070
1305033527.741922 0.478957 7.639368 -5.939070
1305033527.745197 0.478957 7.627394 -6.082757
1305033527.746166 0.478957 7.627394 -6.082757
1305033527.749830 0.443035 7.818977 -6.082757
1305033527.750805 0.443035 7.818977 -6.082757
1305033527.752194 0.443035 7.818977 -6.082757
1305033527.753183 0.443035 7.818977 -6.082757
1305033527.756321 0.287374 8.010560 -6.274340
1305033527.757332 0.287374 8.010560 -6.274340
1305033527.760955 0.395140 8.058456 -6.226444
1305033527.761894 0.395140 8.058456 -6.226444
1305033527.765028 0.287374 8.106352 -6.082757
1305033527.766018 0.287374 8.106352 -6.082757
1305033527.767279 0.287374 8.106352 -6.082757
1305033527.768434 0.287374 8.106352 -6.082757
1305033527.772045 0.443035 8.106352 -6.274340
1305033527.773046 0.443035 8.106352 -6.274340
1305033527.776635 0.395140 8.106352 -6.274340
1305033527.779791 0.287374 8.202143 -6.465923
1305033527.781381 0.287374 8.202143 -6.465923
1305033527.782280 0.287374 8.202143 -6.465923
1305033527.783290 0.287374 8.202143 -6.465923
1305033527.786922 0.287374 8.202143 -6.274340
1305033527.787913 0.287374 8.202143 -6.274340
1305033527.791238 0.287374 8.297935 -6.465923
1305033527.792170 0.287374 8.297935 -6.465923
1305033527.795792 0.191583 8.202143 -6.609610
1305033527.796791 0.191583 8.202143 -6.609610
1305033527.800041 0.119739 8.345830 -6.669480
1305033527.801029 0.119739 8.345830 -6.669480
1305033527.802293 0.119739 8.345830 -6.669480
1305033527.803292 0.119739 8.345830 -6.669480
1305033527.806918 0.443035 8.297935 -6.633558
1305033527.807895 0.443035 8.297935 -6.633558
1305033527.811166 0.395140 8.345830 -6.465923
1305033527.812307 0.395140 8.345830 -6.465923
1305033527.815911 0.478957 8.297935 -6.370132
1305033527.816980 0.478957 8.297935 -6.370132
1305033527.820042 0.287374 8.345830 -6.226444
1305033527.821183 0.287374 8.345830 -6.226444
1305033527.822306 0.287374 8.345830 -6.226444
1305033527.823451 0.287374 8.345830 -6.226444
1305033527.826925 0.478957 8.202143 -5.915122
1305033527.828035 0.478957 8.202143 -5.915122
1305033527.831169 0.443035 8.345830 -6.082757
1305033527.832285 0.443035 8.345830 -6.082757
1305033527.835932 0.478957 8.106352 -6.082757
1305033527.836926 0.478957 8.106352 -6.082757
1305033527.840165 0.478957 8.010560 -5.891174
1305033527.841180 0.478957 8.010560 -5.891174
1305033527.844823 0.526853 8.010560 -6.082757
1305033527.845925 0.526853 8.010560 -6.082757
1305033527.847039 0.526853 8.010560 -6.082757
1305033527.848182 0.526853 8.010560 -6.082757
1305033527.851181 0.478957 7.818977 -5.986966
1305033527.852320 0.478957 7.818977 -5.986966
1305033527.855831 0.682514 7.723186 -6.082757
1305033527.857087 0.682514 7.723186 -6.082757
1305033527.860176 0.682514 7.627394 -6.178549
1305033527.861148 0.682514 7.627394 -6.178549
1305033527.862414 0.682514 7.627394 -6.178549
1305033527.863775 0.682514 7.627394 -6.178549
1305033527.867043 0.826201 7.435812 -6.274340
1305033527.868041 0.826201 7.435812 -6.274340
1305033527.871184 0.862123 7.244229 -6.274340
1305033527.872293 0.862123 7.244229 -6.274340
1305033527.875911 0.850149 7.340020 -6.274340
1305033527.876899 0.850149 7.340020 -6.274340
1305033527.880189 0.778306 7.435812 -6.178549
1305033527.881191 0.778306 7.435812 -6.178549
1305033527.884803 0.778306 7.244229 -6.082757
1305033527.885773 0.778306 7.244229 -6.082757
1305033527.887061 0.778306 7.244229 -6.082757
1305033527.888197 0.778306 7.244229 -6.082757
1305033527.891307 0.682514 7.244229 -6.178549
1305033527.892295 0.682514 7.244229 -6.178549
1305033527.895910 0.826201 7.196333 -6.322236
1305033527.896914 0.826201 7.196333 -6.322236
1305033527.900149 0.862123 7.244229 -6.274340
1305033527.901164 0.862123 7.244229 -6.274340
1305033527.904824 0.862123 7.292124 -6.274340
1305033527.905740 0.862123 7.292124 -6.274340
1305033527.907001 0.862123 7.292124 -6.274340
1305033527.907977 0.862123 7.292124 -6.274340
1305033527.911316 0.862123 7.244229 -6.370132
1305033527.912300 0.862123 7.244229 -6.370132
1305033527.915932 0.910019 7.244229 -6.465923
1305033527.916935 0.910019 7.244229 -6.465923
1305033527.920203 0.862123 7.244229 -6.298288
1305033527.921199 0.862123 7.244229 -6.298288
1305033527.924799 0.862123 7.244229 -6.645532
1305033527.925779 0.862123 7.244229 -6.645532
1305033527.927044 0.862123 7.244229 -6.645532
1305033527.928158 0.862123 7.244229 -6.645532
1305033527.931169 0.862123 7.244229 -6.609610
1305033527.932308 0.862123 7.244229 -6.609610
1305033527.935911 0.862123 7.340020 -6.274340
1305033527.936938 0.862123 7.340020 -6.274340
1305033527.940186 1.053706 7.244229 -6.465923
1305033527.941188 1.053706 7.244229 -6.465923
1305033527.944809 0.862123 7.340020 -6.561715
1305033527.945868 0.862123 7.340020 -6.561715
1305033527.947055 0.862123 7.340020 -6.561715
1305033527.948173 0.862123 7.340020 -6.561715
1305033527.951296 0.957915 7.220281 -6.657506
1305033527.952303 0.957915 7.220281 -6.657506
1305033527.955913 0.957915 7.244229 -6.657506
1305033527.956933 0.957915 7.244229 -6.657506
1305033527.960188 0.874097 7.340020 -6.286314
1305033527.961155 0.874097 7.340020 -6.286314
1305033527.964784 1.053706 7.256203 -6.465923
1305033527.965905 1.053706 7.256203 -6.465923
1305033527.967031 1.053706 7.256203 -6.465923
1305033527.968160 1.053706 7.256203 -6.465923
1305033527.971163 1.053706 7.244229 -6.465923
1305033527.972281 1.053706 7.244229 -6.465923
1305033527.975922 1.053706 7.244229 -6.370132
1305033527.976925 1.053706 7.244229 -6.370132
1305033527.980177 0.957915 7.435812 -6.274340
1305033527.981188 0.957915 7.435812 -6.274340
1305033527.984828 0.862123 7.340020 -6.274340
1305033527.985811 0.862123 7.340020 -6.274340
1305033527.987057 0.862123 7.340020 -6.274340
1305033527.988037 0.862123 7.340020 -6.274340
1305033527.991325 0.862123 7.435812 -6.465923
1305033527.992287 0.862123 7.435812 -6.465923
1305033527.995908 0.862123 7.435812 -6.274340
1305033527.996905 0.862123 7.435812 -6.274340
1305033528.000151 0.957915 7.340020 -6.465923
1305033528.001154 0.957915 7.340020 -6.465923
1305033528.004787 0.957915 7.435812 -6.322236
1305033528.005902 0.957915 7.435812 -6.322236
1305033528.007063 0.957915 7.435812 -6.322236
1305033528.008161 0.957915 7.435812 -6.322236
1305033528.011325 0.874097 7.651342 -6.274340
1305033528.012305 0.874097 7.651342 -6.274340
1305033528.015911 0.862123 7.627394 -6.274340
1305033528.016912 0.862123 7.627394 -6.274340
1305033528.020309 0.826201 7.723186 -6.274340
1305033528.021309 0.826201 7.723186 -6.274340
1305033528.022304 0.826201 7.723186 -6.274340
1305033528.025910 0.862123 7.723186 -6.250392
1305033528.026913 0.862123 7.723186 -6.250392
1305033528.030167 0.862123 7.675290 -6.082757
1305033528.031157 0.862123 7.675290 -6.082757
1305033528.034801 0.778306 7.675290 -6.178549
1305033528.035784 0.778306 7.675290 -6.178549
1305033528.037036 0.778306 7.675290 -6.178549
1305033528.038054 0.778306 7.675290 -6.178549
1305033528.041321 0.682514 7.818977 -5.986966
1305033528.042305 0.682514 7.818977 -5.986966
1305033528.045923 0.526853 7.914769 -5.915122
1305033528.046924 0.526853 7.914769 -5.915122
1305033528.050201 0.826201 7.914769 -6.082757
1305033528.051198 0.826201 7.914769 -6.082757
1305033528.054808 0.682514 8.010560 -6.082757
1305033528.055790 0.682514 8.010560 -6.082757
1305033528.057065 0.682514 8.010560 -6.082757
1305033528.058077 0.682514 8.010560 -6.082757
1305033528.061291 0.778306 7.962665 -5.986966
1305033528.062280 0.778306 7.962665 -5.986966
1305033528.065770 0.682514 8.010560 -5.939070
1305033528.066904 0.682514 8.010560 -5.939070
1305033528.070262 0.526853 8.010560 -6.082757
1305033528.071165 0.526853 8.010560 -6.082757
1305033528.074803 0.826201 7.914769 -5.891174
1305033528.075772 0.826201 7.914769 -5.891174
1305033528.077103 0.826201 7.914769 -5.891174
1305033528.078048 0.826201 7.914769 -5.891174
1305033528.081319 0.682514 7.818977 -6.082757
1305033528.082311 0.682514 7.818977 -6.082757
1305033528.085911 0.574749 7.914769 -6.082757
1305033528.086917 0.574749 7.914769 -6.082757
1305033528.090200 0.574749 7.818977 -5.986966
1305033528.091243 0.574749 7.818977 -5.986966
1305033528.094789 0.478957 7.818977 -6.082757
1305033528.095884 0.478957 7.818977 -6.082757
1305033528.096935 0.478957 7.818977 -6.082757
1305033528.100171 0.478957 7.962665 -6.082757
1305033528.101167 0.478957 7.962665 -6.082757
1305033528.104796 0.478957 7.986612 -6.274340
1305033528.105805 0.478957 7.986612 -6.274340
1305033528.107048 0.478957 7.986612 -6.274340
1305033528.108152 0.478957 7.986612 -6.274340
1305033528.111178 0.490931 8.010560 -6.274340
1305033528.112303 0.490931 8.010560 -6.274340
1305033528.115934 0.443035 8.058456 -6.082757
1305033528.116953 0.443035 8.058456 -6.082757
1305033528.120039 0.478957 7.986612 -6.274340
1305033528.121204 0.478957 7.986612 -6.274340
1305033528.122304 0.478957 7.986612 -6.274340
1305033528.123452 0.478957 7.986612 -6.274340
1305033528.127037 0.490931 8.010560 -6.322236
1305033528.128027 0.490931 8.010560 -6.322236
1305033528.131177 0.682514 8.010560 -6.274340
1305033528.132290 0.682514 8.010560 -6.274340
1305033528.135799 0.574749 8.010560 -6.274340
1305033528.136787 0.574749 8.010560 -6.274340
1305033528.140074 0.682514 7.914769 -6.274340
1305033528.141198 0.682514 7.914769 -6.274340
1305033528.142303 0.682514 7.914769 -6.274340
1305033528.144751 0.682514 7.914769 -6.274340
1305033528.146946 0.526853 7.818977 -6.274340
1305033528.148040 0.526853 7.818977 -6.274340
1305033528.151322 0.502905 7.639368 -6.082757
1305033528.152309 0.502905 7.639368 -6.082757
1305033528.155918 0.574749 7.627394 -6.082757
1305033528.156981 0.574749 7.627394 -6.082757
1305033528.160180 0.862123 7.435812 -6.250392
1305033528.161152 0.862123 7.435812 -6.250392
1305033528.162403 0.862123 7.435812 -6.250392
1305033528.163405 0.862123 7.435812 -6.250392
1305033528.166941 0.778306 7.340020 -6.274340
1305033528.168023 0.778306 7.340020 -6.274340
1305033528.171172 0.574749 7.340020 -6.082757
1305033528.172284 0.574749 7.340020 -6.082757
1305033528.176012 0.682514 7.196333 -6.082757
1305033528.176911 0.682514 7.196333 -6.082757
1305033528.180176 0.682514 7.148437 -5.986966
1305033528.181172 0.682514 7.148437 -5.986966
1305033528.184834 0.778306 6.908959 -5.843279
1305033528.185787 0.778306 6.908959 -5.843279
1305033528.187057 0.778306 6.908959 -5.843279
1305033528.188197 0.778306 6.908959 -5.843279
1305033528.191326 0.682514 6.861063 -6.082757
1305033528.192298 0.682514 6.861063 -6.082757
1305033528.195919 0.682514 6.669480 -6.274340
1305033528.196916 0.682514 6.669480 -6.274340
1305033528.200151 0.682514 6.669480 -6.082757
1305033528.201284 0.682514 6.669480 -6.082757
1305033528.204820 0.478957 6.669480 -5.795383
1305033528.205908 0.478957 6.669480 -5.795383
1305033528.207060 0.478957 6.669480 -5.795383
1305033528.208175 0.478957 6.669480 -5.795383
1305033528.211311 0.478957 6.765271 -5.843279
1305033528.212320 0.478957 6.765271 -5.843279
1305033528.216050 0.574749 6.669480 -5.891174
1305033528.217047 0.574749 6.669480 -5.891174
1305033528.218061 0.574749 6.669480 -5.891174
1305033528.221307 0.574749 6.765271 -5.603800
1305033528.222307 0.574749 6.765271 -5.603800
1305033528.225912 0.682514 6.669480 -5.603800
1305033528.226907 0.682514 6.669480 -5.603800
1305033528.230158 0.682514 6.765271 -5.603800
1305033528.231163 0.682514 6.765271 -5.603800
1305033528.234788 0.574749 6.861063 -5.699591
1305033528.235771 0.574749 6.861063 -5.699591
1305033528.236775 0.574749 6.861063 -5.699591
1305033528.240211 0.682514 6.861063 -5.699591
1305033528.241178 0.682514 6.861063 -5.699591
1305033528.244807 0.478957 6.861063 -5.699591
1305033528.245786 0.478957 6.861063 -5.699591
1305033528.246810 0.478957 6.861063 -5.699591
1305033528.250175 0.574749 6.908959 -6.082757
1305033528.251183 0.574749 6.908959 -6.082757
1305033528.254796 0.490931 7.052646 -6.274340
1305033528.255909 0.490931 7.052646 -6.274340
1305033528.257167 0.490931 7.052646 -6.274340
1305033528.258199 0.490931 7.052646 -6.274340
1305033528.261281 0.478957 7.196333 -6.322236
1305033528.262286 0.478957 7.196333 -6.322236
1305033528.267544 0.478957 7.340020 -6.465923
1305033528.269748 0.478957 7.435812 -6.465923
1305033528.270733 0.478957 7.435812 -6.465923
1305033528.271978 0.478957 7.435812 -6.465923
1305033528.272980 0.478957 7.435812 -6.465923
1305033528.276293 0.478957 7.627394 -6.657506
1305033528.277528 0.478957 7.627394 -6.657506
1305033528.280850 0.526853 7.627394 -6.657506
1305033528.281912 0.526853 7.627394 -6.657506
1305033528.285099 0.478957 7.627394 -6.657506
1305033528.286061 0.478957 7.627394 -6.657506
1305033528.287282 0.478957 7.627394 -6.657506
1305033528.288419 0.478957 7.627394 -6.657506
1305033528.291918 0.682514 7.723186 -6.849089
1305033528.292909 0.682514 7.723186 -6.849089
1305033528.296281 0.526853 7.914769 -6.657506
1305033528.297268 0.526853 7.914769 -6.657506
1305033528.300774 0.574749 7.962665 -6.705402
1305033528.301896 0.574749 7.962665 -6.705402
1305033528.305190 0.682514 7.723186 -7.040672
1305033528.306172 0.682514 7.723186 -7.040672
1305033528.309829 0.574749 7.818977 -6.849089
1305033528.310831 0.574749 7.818977 -6.849089
1305033528.312117 0.574749 7.818977 -6.849089
1305033528.313190 0.574749 7.818977 -6.849089
1305033528.316324 0.574749 7.723186 -6.753297
1305033528.317281 0.574749 7.723186 -6.753297
1305033528.320954 0.682514 7.818977 -6.849089
1305033528.321918 0.682514 7.818977 -6.849089
1305033528.325162 0.574749 7.723186 -6.849089
1305033528.326165 0.574749 7.723186 -6.849089
1305033528.329740 0.682514 7.723186 -6.849089
1305033528.330732 0.682514 7.723186 -6.849089
1305033528.331970 0.682514 7.723186 -6.849089
1305033528.332969 0.682514 7.723186 -6.849089
1305033528.336246 0.502905 7.651342 -6.657506
1305033528.337300 0.502905 7.651342 -6.657506
1305033528.340931 0.682514 7.723186 -6.633558
1305033528.341897 0.682514 7.723186 -6.633558
1305033528.345207 0.778306 7.651342 -6.633558
1305033528.346167 0.778306 7.651342 -6.633558
1305033528.349810 0.682514 7.723186 -6.274340
1305033528.350798 0.682514 7.723186 -6.274340
1305033528.352058 0.682514 7.723186 -6.274340
1305033528.353060 0.682514 7.723186 -6.274340
1305033528.356322 0.682514 7.639368 -6.250392
1305033528.357280 0.682514 7.639368 -6.250392
1305033528.360917 0.682514 7.639368 -6.274340
1305033528.361912 0.682514 7.639368 -6.274340
1305033528.365031 0.682514 7.615421 -6.082757
1305033528.366154 0.682514 7.615421 -6.082757
1305033528.367272 0.682514 7.615421 -6.082757
1305033528.368789 0.682514 7.615421 -6.082757
1305033528.372042 0.778306 7.531603 -5.891174
1305033528.373032 0.778306 7.531603 -5.891174
1305033528.376311 0.778306 7.579499 -5.903148
1305033528.377315 0.778306 7.579499 -5.903148
1305033528.380930 0.574749 7.435812 -5.891174
1305033528.381912 0.574749 7.435812 -5.891174
1305033528.385197 0.502905 7.435812 -6.250392
1305033528.386329 0.502905 7.435812 -6.250392
1305033528.389787 0.862123 7.256203 -6.178549
1305033528.390955 0.862123 7.256203 -6.178549
1305033528.392046 0.862123 7.256203 -6.178549
1305033528.393157 0.862123 7.256203 -6.178549
1305033528.396282 0.682514 7.244229 -6.082757
1305033528.397273 0.682514 7.244229 -6.082757
1305033528.400899 0.574749 7.244229 -6.226444
1305033528.401899 0.574749 7.244229 -6.226444
1305033528.405165 0.574749 7.244229 -6.082757
1305033528.406156 0.574749 7.244229 -6.082757
1305033528.409792 0.682514 7.244229 -6.274340
1305033528.410817 0.682514 7.244229 -6.274340
1305033528.412273 0.682514 7.244229 -6.274340
1305033528.415182 0.826201 7.244229 -6.274340
1305033528.416159 0.826201 7.244229 -6.274340
1305033528.419790 0.682514 7.435812 -6.274340
1305033528.420824 0.682514 7.435812 -6.274340
1305033528.422058 0.682514 7.435812 -6.274340
1305033528.423024 0.682514 7.435812 -6.274340
1305033528.426162 0.502905 7.435812 -6.274340
1305033528.427284 0.502905 7.435812 -6.274340
1305033528.430784 0.574749 7.435812 -6.274340
1305033528.431900 0.574749 7.435812 -6.274340
1305033528.435170 0.526853 7.627394 -6.465923
1305033528.436162 0.526853 7.627394 -6.465923
1305033528.439826 0.526853 7.579499 -6.465923
1305033528.440797 0.526853 7.579499 -6.465923
1305033528.442081 0.526853 7.579499 -6.465923
1305033528.443060 0.526853 7.579499 -6.465923
1305033528.446340 0.490931 7.639368 -6.465923
1305033528.447293 0.490931 7.639368 -6.465923
1305033528.450920 0.287374 7.651342 -6.274340
1305033528.451914 0.287374 7.651342 -6.274340
1305033528.455183 0.478957 7.627394 -6.465923
1305033528.456324 0.478957 7.627394 -6.465923
1305033528.459913 0.478957 7.627394 -6.274340
1305033528.460913 0.478957 7.627394 -6.274340
1305033528.462167 0.478957 7.627394 -6.274340
1305033528.463156 0.478957 7.627394 -6.274340
1305033528.466188 0.478957 7.531603 -6.274340
1305033528.467916 0.478957 7.531603 -6.274340
1305033528.470790 0.574749 7.435812 -6.274340
1305033528.471906 0.574749 7.435812 -6.274340
1305033528.475067 0.478957 7.340020 -6.274340
1305033528.476158 0.478957 7.340020 -6.274340
1305033528.479864 0.478957 7.340020 -6.178549
1305033528.480923 0.478957 7.340020 -6.178549
1305033528.481901 0.478957 7.340020 -6.178549
1305033528.485205 0.574749 7.340020 -6.274340
1305033528.486181 0.574749 7.340020 -6.274340
1305033528.489792 0.574749 7.244229 -6.226444
1305033528.490862 0.574749 7.244229 -6.226444
1305033528.492065 0.574749 7.244229 -6.226444
1305033528.493038 0.574749 7.244229 -6.226444
1305033528.496284 0.682514 7.292124 -6.082757
1305033528.497282 0.682514 7.292124 -6.082757
1305033528.500912 0.574749 7.435812 -5.986966
1305033528.501911 0.574749 7.435812 -5.986966
1305033528.505203 0.778306 7.435812 -6.274340
1305033528.506300 0.778306 7.435812 -6.274340
1305033528.509833 0.682514 7.435812 -6.226444
1305033528.510815 0.682514 7.435812 -6.226444
1305033528.512176 0.682514 7.435812 -6.226444
1305033528.513201 0.682514 7.435812 -6.226444
1305033528.516348 0.478957 7.340020 -6.322236
1305033528.517299 0.478957 7.340020 -6.322236
1305033528.520934 0.490931 7.435812 -6.274340
1305033528.521934 0.490931 7.435812 -6.274340
1305033528.525180 0.682514 7.268176 -6.465923
1305033528.526315 0.682514 7.268176 -6.465923
1305033528.529801 0.682514 7.244229 -6.465923
1305033528.530916 0.682514 7.244229 -6.465923
1305033528.532160 0.682514 7.244229 -6.465923
1305033528.533159 0.682514 7.244229 -6.465923
1305033528.536294 0.478957 7.340020 -6.657506
1305033528.537289 0.478957 7.340020 -6.657506
1305033528.540933 0.478957 7.435812 -6.370132
1305033528.541914 0.478957 7.435812 -6.370132
1305033528.545207 0.682514 7.340020 -6.465923
1305033528.546196 0.682514 7.340020 -6.465923
1305033528.549790 0.478957 7.340020 -6.370132
1305033528.550810 0.478957 7.340020 -6.370132
1305033528.552195 0.478957 7.340020 -6.370132
1305033528.553203 0.478957 7.340020 -6.370132
1305033528.556323 0.478957 7.615421 -6.370132
1305033528.557279 0.478957 7.615421 -6.370132
1305033528.560908 0.478957 7.531603 -6.657506
1305033528.561903 0.478957 7.531603 -6.657506
1305033528.565161 0.287374 7.627394 -6.561715
1305033528.566183 0.287374 7.627394 -6.561715
1305033528.569786 0.478957 7.627394 -6.465923
1305033528.570792 0.478957 7.627394 -6.465923
1305033528.572163 0.478957 7.627394 -6.465923
1305033528.573155 0.478957 7.627394 -6.465923
1305033528.576310 0.395140 7.627394 -6.561715
1305033528.577370 0.395140 7.627394 -6.561715
1305033528.580939 0.191583 7.818977 -6.657506
1305033528.581928 0.191583 7.818977 -6.657506
1305033528.585209 0.466983 7.627394 -6.705402
1305033528.586156 0.466983 7.627394 -6.705402
1305033528.589792 0.287374 7.818977 -6.657506
1305033528.590955 0.287374 7.818977 -6.657506
1305033528.592172 0.287374 7.818977 -6.657506
1305033528.593170 0.287374 7.818977 -6.657506
1305033528.596276 0.191583 7.818977 -6.657506
1305033528.597275 0.191583 7.818977 -6.657506
1305033528.600799 0.107765 8.034508 -6.657506
1305033528.601904 0.107765 8.034508 -6.657506
1305033528.605075 0.287374 8.034508 -6.705402
1305033528.606043 0.287374 8.034508 -6.705402
1305033528.607293 0.287374 8.034508 -6.705402
1305033528.608439 0.287374 8.034508 -6.705402
1305033528.612066 0.191583 8.393726 -6.370132
1305033528.613061 0.191583 8.393726 -6.370132
1305033528.616362 0.287374 8.345830 -6.322236
1305033528.617294 0.287374 8.345830 -6.322236
1305033528.620952 0.395140 8.393726 -6.465923
1305033528.621930 0.395140 8.393726 -6.465923
1305033528.625172 0.395140 8.106352 -6.298288
1305033528.626164 0.395140 8.106352 -6.298288
1305033528.629781 0.287374 8.106352 -6.082757
1305033528.630787 0.287374 8.106352 -6.082757
1305033528.632038 0.287374 8.106352 -6.082757
1305033528.633038 0.287374 8.106352 -6.082757
1305033528.636299 0.287374 7.986612 -6.274340
1305033528.637310 0.287374 7.986612 -6.274340
1305033528.640939 0.395140 7.723186 -6.286314
1305033528.641922 0.395140 7.723186 -6.286314
1305033528.645192 0.287374 7.627394 -6.082757
1305033528.646164 0.287374 7.627394 -6.082757
1305033528.649818 0.478957 7.627394 -5.986966
1305033528.650813 0.478957 7.627394 -5.986966
1305033528.652060 0.478957 7.627394 -5.986966
1305033528.653060 0.478957 7.627394 -5.986966
1305033528.656285 0.478957 7.531603 -6.082757
1305033528.657280 0.478957 7.531603 -6.082757
1305033528.660930 0.682514 7.244229 -6.262366
1305033528.661917 0.682514 7.244229 -6.262366
1305033528.665169 0.682514 7.244229 -6.322236
1305033528.666167 0.682514 7.244229 -6.322236
1305033528.669789 0.850149 7.220281 -6.274340
1305033528.670805 0.850149 7.220281 -6.274340
1305033528.671783 0.850149 7.220281 -6.274340
1305033528.675180 0.850149 7.052646 -6.561715
1305033528.676300 0.850149 7.052646 -6.561715
1305033528.679814 0.682514 7.196333 -6.465923
1305033528.680948 0.682514 7.196333 -6.465923
1305033528.682046 0.682514 7.196333 -6.465923
1305033528.683175 0.682514 7.196333 -6.465923
1305033528.686297 0.574749 6.956854 -6.657506
1305033528.687277 0.574749 6.956854 -6.657506
1305033528.690975 0.682514 6.861063 -6.657506
1305033528.691926 0.682514 6.861063 -6.657506
1305033528.695177 0.778306 6.861063 -6.657506
1305033528.696168 0.778306 6.861063 -6.657506
1305033528.699668 0.574749 6.861063 -6.657506
1305033528.700927 0.574749 6.861063 -6.657506
1305033528.701921 0.574749 6.861063 -6.657506
1305033528.705176 0.478957 6.885011 -6.609610
1305033528.706150 0.478957 6.885011 -6.609610
1305033528.709803 0.682514 6.861063 -6.669480
1305033528.710814 0.682514 6.861063 -6.669480
1305033528.712060 0.682514 6.861063 -6.669480
1305033528.713056 0.682514 6.861063 -6.669480
1305033528.716324 0.862123 6.861063 -6.849089
1305033528.717294 0.862123 6.861063 -6.849089
1305033528.720921 0.862123 6.861063 -6.657506
1305033528.721933 0.862123 6.861063 -6.657506
1305033528.725178 0.910019 7.052646 -6.633558
1305033528.726169 0.910019 7.052646 -6.633558
1305033528.729783 0.862123 7.148437 -6.657506
1305033528.730776 0.862123 7.148437 -6.657506
1305033528.732042 0.862123 7.148437 -6.657506
1305033528.733031 0.862123 7.148437 -6.657506
1305033528.736321 0.910019 7.244229 -6.657506
1305033528.737286 0.910019 7.244229 -6.657506
1305033528.740946 0.957915 7.435812 -6.465923
1305033528.741907 0.957915 7.435812 -6.465923
1305033528.745181 0.910019 7.627394 -6.322236
1305033528.746155 0.910019 7.627394 -6.322236
1305033528.749856 0.862123 7.627394 -6.274340
1305033528.750956 0.862123 7.627394 -6.274340
1305033528.752039 0.862123 7.627394 -6.274340
1305033528.753200 0.862123 7.627394 -6.274340
1305033528.756326 0.778306 7.627394 -6.274340
1305033528.757294 0.778306 7.627394 -6.274340
1305033528.760929 0.826201 7.651342 -6.465923
1305033528.761917 0.826201 7.651342 -6.465923
1305033528.765178 0.778306 7.651342 -6.370132
1305033528.766210 0.778306 7.651342 -6.370132
1305033528.769788 0.862123 7.627394 -6.465923
1305033528.770798 0.862123 7.627394 -6.465923
1305033528.772205 0.862123 7.627394 -6.465923
1305033528.773163 0.862123 7.627394 -6.465923
1305033528.776288 0.862123 7.627394 -6.561715
1305033528.777281 0.862123 7.627394 -6.561715
1305033528.780948 0.862123 7.531603 -6.465923
1305033528.781929 0.862123 7.531603 -6.465923
1305033528.785203 0.682514 7.435812 -6.609610
1305033528.786159 0.682514 7.435812 -6.609610
1305033528.789787 0.874097 7.435812 -6.645532
1305033528.790787 0.874097 7.435812 -6.645532
1305033528.792172 0.874097 7.435812 -6.645532
1305033528.793172 0.874097 7.435812 -6.645532
1305033528.796294 0.862123 7.435812 -6.657506
1305033528.797293 0.862123 7.435812 -6.657506
1305033528.800927 0.862123 7.340020 -6.657506
1305033528.801920 0.862123 7.340020 -6.657506
1305033528.805197 0.862123 7.244229 -6.849089
1305033528.806169 0.862123 7.244229 -6.849089
1305033528.809802 0.862123 7.244229 -6.681454
1305033528.810804 0.862123 7.244229 -6.681454
1305033528.812179 0.862123 7.244229 -6.681454
1305033528.813181 0.862123 7.244229 -6.681454
1305033528.816311 0.957915 7.244229 -6.657506
1305033528.817305 0.957915 7.244229 -6.657506
1305033528.820958 0.957915 7.196333 -6.370132
1305033528.821933 0.957915 7.196333 -6.370132
1305033528.825326 1.161471 6.873037 -6.645532
1305033528.826328 1.161471 6.873037 -6.645532
1305033528.829931 0.957915 6.861063 -6.465923
1305033528.830921 0.957915 6.861063 -6.465923
1305033528.832170 0.957915 6.861063 -6.465923
1305033528.833168 0.957915 6.861063 -6.465923
1305033528.836303 1.257263 6.813167 -6.465923
1305033528.837284 1.257263 6.813167 -6.465923
1305033528.840968 1.161471 6.813167 -6.322236
1305033528.841921 1.161471 6.813167 -6.322236
1305033528.845188 1.245289 6.813167 -6.274340
1305033528.846299 1.245289 6.813167 -6.274340
1305033528.849806 1.161471 6.908959 -6.274340
1305033528.850905 1.161471 6.908959 -6.274340
1305033528.852176 1.161471 6.908959 -6.274340
1305033528.853167 1.161471 6.908959 -6.274340
1305033528.856297 1.257263 6.765271 -6.657506
1305033528.857423 1.257263 6.765271 -6.657506
1305033528.860913 1.233315 6.813167 -6.681454
1305033528.861914 1.233315 6.813167 -6.681454
1305033528.865175 1.161471 6.861063 -6.657506
1305033528.866176 1.161471 6.861063 -6.657506
1305033528.869791 0.957915 6.873037 -6.657506
1305033528.870802 0.957915 6.873037 -6.657506
1305033528.872036 0.957915 6.873037 -6.657506
1305033528.873058 0.957915 6.873037 -6.657506
1305033528.876319 1.161471 6.813167 -6.609610
1305033528.877303 1.161471 6.813167 -6.609610
1305033528.880965 1.053706 6.885011 -6.322236
1305033528.881944 1.053706 6.885011 -6.322236
1305033528.885197 1.053706 6.908959 -6.370132
1305033528.886159 1.053706 6.908959 -6.370132
1305033528.889787 1.161471 6.885011 -6.370132
1305033528.890815 1.161471 6.885011 -6.370132
1305033528.892051 1.161471 6.885011 -6.370132
1305033528.893046 1.161471 6.885011 -6.370132
1305033528.896296 1.053706 6.861063 -6.274340
1305033528.897294 1.053706 6.861063 -6.274340
1305033528.900804 1.053706 6.861063 -6.082757
1305033528.901913 1.053706 6.861063 -6.082757
1305033528.905067 1.053706 6.849089 -6.082757
1305033528.906038 1.053706 6.849089 -6.082757
1305033528.907298 1.053706 6.849089 -6.082757
1305033528.908461 1.053706 6.849089 -6.082757
1305033528.911939 1.053706 6.861063 -5.986966
1305033528.913036 1.053706 6.861063 -5.986966
1305033528.916314 1.245289 6.849089 -6.178549
1305033528.917351 1.245289 6.849089 -6.178549
1305033528.920955 1.257263 6.861063 -6.082757
1305033528.921980 1.257263 6.861063 -6.082757
1305033528.925063 1.209367 6.861063 -6.178549
1305033528.926020 1.209367 6.861063 -6.178549
1305033528.927281 1.209367 6.861063 -6.178549
1305033528.928432 1.209367 6.861063 -6.178549
1305033528.932046 1.257263 6.861063 -6.370132
1305033528.933048 1.257263 6.861063 -6.370132
1305033528.936291 1.245289 6.908959 -6.274340
1305033528.937285 1.245289 6.908959 -6.274340
1305033528.940952 1.245289 7.244229 -6.226444
1305033528.941914 1.245289 7.244229 -6.226444
1305033528.945205 1.257263 7.148437 -6.370132
1305033528.946362 1.257263 7.148437 -6.370132
1305033528.949929 1.341080 7.148437 -6.465923
1305033528.950920 1.341080 7.148437 -6.465923
1305033528.952043 1.341080 7.148437 -6.465923
1305033528.955185 1.245289 7.244229 -6.274340
1305033528.956169 1.245289 7.244229 -6.274340
1305033528.959806 1.257263 7.244229 -6.465923
1305033528.960800 1.257263 7.244229 -6.465923
1305033528.962024 1.257263 7.244229 -6.465923
1305033528.963047 1.257263 7.244229 -6.465923
1305033528.966167 1.257263 7.244229 -6.657506
1305033528.967284 1.257263 7.244229 -6.657506
1305033528.970809 1.245289 7.256203 -6.657506
1305033528.971911 1.245289 7.256203 -6.657506
1305033528.975060 1.257263 7.244229 -6.849089
1305033528.976168 1.257263 7.244229 -6.849089
1305033528.977422 1.257263 7.244229 -6.849089
1305033528.978692 1.257263 7.244229 -6.849089
1305033528.982043 1.448846 7.244229 -7.064620
1305033528.983040 1.448846 7.244229 -7.064620
1305033528.986161 1.341080 7.256203 -7.040672
1305033528.987273 1.341080 7.256203 -7.040672
1305033528.990819 1.341080 7.244229 -7.232255
1305033528.991901 1.341080 7.244229 -7.232255
1305033528.995034 1.257263 7.292124 -7.328046
1305033528.996145 1.257263 7.292124 -7.328046
1305033528.997406 1.257263 7.292124 -7.328046
1305033528.998780 1.257263 7.292124 -7.328046
1305033529.002140 1.257263 7.435812 -7.040672
1305033529.003044 1.257263 7.435812 -7.040672
1305033529.006180 1.448846 7.340020 -7.136463
1305033529.007275 1.448846 7.340020 -7.136463
1305033529.010942 1.269237 7.435812 -6.992776
1305033529.011918 1.269237 7.435812 -6.992776
1305033529.015193 1.592533 7.244229 -7.016724
1305033529.016169 1.592533 7.244229 -7.016724
1305033529.019773 1.341080 7.292124 -6.992776
1305033529.020807 1.341080 7.292124 -6.992776
1305033529.022044 1.341080 7.292124 -6.992776
1305033529.023058 1.341080 7.292124 -6.992776
1305033529.026174 1.448846 7.292124 -7.040672
1305033529.027281 1.448846 7.292124 -7.040672
1305033529.030929 1.448846 7.435812 -6.849089
1305033529.031924 1.448846 7.435812 -6.849089
1305033529.035153 1.448846 7.627394 -6.944880
1305033529.036151 1.448846 7.627394 -6.944880
1305033529.039802 1.448846 7.627394 -7.040672
1305033529.040810 1.448846 7.627394 -7.040672
1305033529.042054 1.448846 7.627394 -7.040672
1305033529.043069 1.448846 7.627394 -7.040672
1305033529.046231 1.448846 7.579499 -6.944880
1305033529.047285 1.448846 7.579499 -6.944880
1305033529.050819 1.448846 7.627394 -6.849089
1305033529.051910 1.448846 7.627394 -6.849089
1305033529.055166 1.053706 7.818977 -6.753297
1305033529.056221 1.053706 7.818977 -6.753297
1305033529.059792 1.257263 7.675290 -6.705402
1305033529.060800 1.257263 7.675290 -6.705402
1305033529.062043 1.257263 7.675290 -6.705402
1305033529.063034 1.257263 7.675290 -6.705402
1305033529.066173 1.053706 7.818977 -6.657506
1305033529.067280 1.053706 7.818977 -6.657506
1305033529.070814 1.209367 7.723186 -6.657506
1305033529.071931 1.209367 7.723186 -6.657506
1305033529.075181 1.161471 7.723186 -6.657506
1305033529.076197 1.161471 7.723186 -6.657506
1305033529.079798 1.161471 7.675290 -6.465923
1305033529.080786 1.161471 7.675290 -6.465923
1305033529.082060 1.161471 7.675290 -6.465923
