# accelerometer data
# file: 'rgbd_dataset_freiburg2_360_hemisphere.bag'
# timestamp ax ay az
1311874902.621295 0.993836 9.279797 0.945941
1311874902.624790 1.089628 9.088214 1.041732
1311874902.625795 1.089628 9.088214 1.041732
1311874902.629066 1.173445 9.088214 0.754358
1311874902.630165 1.173445 9.088214 0.754358
1311874902.633639 1.137524 9.040318 0.754358
1311874902.634684 1.137524 9.040318 0.754358
1311874902.637933 1.173445 8.896631 0.658566
1311874902.638945 1.173445 8.896631 0.658566
1311874902.640172 1.173445 8.896631 0.658566
1311874902.641167 1.173445 8.896631 0.658566
1311874902.644788 1.161471 9.088214 0.466983
1311874902.645791 1.161471 9.088214 0.466983
1311874902.649054 1.089628 9.184006 0.562775
1311874902.650069 1.089628 9.184006 0.562775
1311874902.653644 1.089628 9.184006 0.275400
1311874902.654664 1.089628 9.184006 0.275400
1311874902.658044 1.089628 9.459406 0.754358
1311874902.659049 1.089628 9.459406 0.754358
1311874902.660294 1.089628 9.459406 0.754358
1311874902.661667 1.089628 9.459406 0.754358
1311874902.664889 0.993836 9.495328 0.466983
1311874902.665912 0.993836 9.495328 0.466983
1311874902.669184 1.161471 9.471380 0.562775
1311874902.670195 1.161471 9.471380 0.562775
1311874902.673789 1.173445 9.471380 0.419088
1311874902.674787 1.173445 9.471380 0.419088
1311874902.678042 1.185419 9.495328 0.371192
1311874902.679067 1.185419 9.495328 0.371192
1311874902.680146 1.185419 9.495328 0.371192
1311874902.681681 1.185419 9.495328 0.371192
1311874902.684910 1.173445 9.567171 0.275400
1311874902.685915 1.173445 9.567171 0.275400
1311874902.689052 1.137524 9.471380 0.275400
1311874902.690166 1.137524 9.471380 0.275400
1311874902.693662 0.993836 9.471380 0.347244
1311874902.694664 0.993836 9.471380 0.347244
1311874902.697919 1.089628 9.459406 0.083818
1311874902.698970 1.089628 9.459406 0.083818
1311874902.700189 1.089628 9.459406 0.083818
1311874902.701292 1.089628 9.459406 0.083818
1311874902.704788 0.993836 9.375588 -0.011974
1311874902.705765 0.993836 9.375588 -0.011974
1311874902.709027 0.886071 9.375588 0.083818
1311874902.710015 0.886071 9.375588 0.083818
1311874902.713294 0.814227 9.471380 0.083818
1311874902.714303 0.814227 9.471380 0.083818
1311874902.717773 1.089628 9.471380 0.179609
1311874902.718768 1.089628 9.471380 0.179609
1311874902.720073 1.089628 9.471380 0.179609
1311874902.721164 1.089628 9.471380 0.179609
1311874902.724669 0.993836 9.567171 0.371192
1311874902.725647 0.993836 9.567171 0.371192
1311874902.728944 0.993836 9.567171 0.371192
1311874902.729942 0.993836 9.567171 0.371192
1311874902.733068 0.993836 9.567171 0.562775
1311874902.734042 0.993836 9.567171 0.562775
1311874902.737663 1.173445 9.471380 0.562775
1311874902.738684 1.173445 9.471380 0.562775
1311874902.739664 1.173445 9.471380 0.562775
1311874902.743042 1.137524 9.567171 0.754358
1311874902.744060 1.137524 9.567171 0.754358
1311874902.747678 1.185419 9.471380 0.371192
1311874902.748813 1.185419 9.471380 0.371192
1311874902.749913 1.185419 9.471380 0.371192
1311874902.751040 1.185419 9.471380 0.371192
1311874902.754046 1.185419 9.519276 0.371192
1311874902.755168 1.185419 9.519276 0.371192
1311874902.758691 1.173445 9.471380 0.371192
1311874902.759780 1.173445 9.471380 0.371192
1311874902.762914 1.173445 9.567171 0.275400
1311874902.763897 1.173445 9.567171 0.275400
1311874902.765163 1.173445 9.567171 0.275400
1311874902.766294 1.173445 9.567171 0.275400
1311874902.769818 1.185419 9.662963 0.179609
1311874902.770833 1.185419 9.662963 0.179609
1311874902.774057 1.185419 9.567171 0.371192
1311874902.775038 1.185419 9.567171 0.371192
1311874902.778663 1.173445 9.471380 0.179609
1311874902.779670 1.173445 9.471380 0.179609
1311874902.780800 1.173445 9.471380 0.179609
1311874902.784016 1.185419 9.662963 -0.059870
1311874902.785037 1.185419 9.662963 -0.059870
1311874902.788009 1.185419 9.662963 0.179609
1311874902.789019 1.185419 9.662963 0.179609
1311874902.792275 1.137524 9.567171 0.371192
1311874902.793673 1.137524 9.567171 0.371192
1311874902.794915 1.137524 9.567171 0.371192
1311874902.795933 1.137524 9.567171 0.371192
1311874902.799063 1.185419 9.471380 0.275400
1311874902.800040 1.185419 9.471380 0.275400
1311874902.803659 1.089628 9.471380 0.323296
1311874902.804646 1.089628 9.471380 0.323296
1311874902.807913 1.089628 9.471380 0.179609
1311874902.809038 1.089628 9.471380 0.179609
1311874902.810161 1.089628 9.471380 0.179609
1311874902.811165 1.089628 9.471380 0.179609
1311874902.814794 1.185419 9.471380 0.179609
1311874902.815764 1.185419 9.471380 0.179609
1311874902.819016 1.161471 9.471380 0.371192
1311874902.820039 1.161471 9.471380 0.371192
1311874902.823678 1.173445 9.471380 0.179609
1311874902.824663 1.173445 9.471380 0.179609
1311874902.827932 1.185419 9.662963 0.179609
1311874902.828906 1.185419 9.662963 0.179609
1311874902.830161 1.185419 9.662963 0.179609
1311874902.831162 1.185419 9.662963 0.179609
1311874902.834790 1.173445 9.854546 0.275400
1311874902.835790 1.173445 9.854546 0.275400
1311874902.838916 1.173445 9.830598 0.275400
1311874902.840035 1.173445 9.830598 0.275400
1311874902.843038 1.185419 9.806650 0.371192
1311874902.844041 1.185419 9.806650 0.371192
1311874902.847291 1.185419 9.854546 0.179609
1311874902.848287 1.185419 9.854546 0.179609
1311874902.849890 1.185419 9.854546 0.179609
1311874902.850888 1.185419 9.854546 0.179609
1311874902.854182 1.185419 9.830598 0.179609
1311874902.855165 1.185419 9.830598 0.179609
1311874902.858634 1.089628 9.758754 0.011974
1311874902.859668 1.089628 9.758754 0.011974
1311874902.862915 1.185419 9.758754 -0.059870
1311874902.863925 1.185419 9.758754 -0.059870
1311874902.865161 1.185419 9.758754 -0.059870
1311874902.866162 1.185419 9.758754 -0.059870
1311874902.869664 1.185419 9.662963 0.083818
1311874902.870804 1.185419 9.662963 0.083818
1311874902.873897 1.185419 9.806650 -0.011974
1311874902.874913 1.185419 9.806650 -0.011974
1311874902.878039 0.993836 9.567171 0.179609
1311874902.879028 0.993836 9.567171 0.179609
1311874902.882637 1.185419 9.662963 0.371192
1311874902.883649 1.185419 9.662963 0.371192
1311874902.884912 1.185419 9.662963 0.371192
1311874902.885911 1.185419 9.662963 0.371192
1311874902.889163 1.173445 9.662963 0.371192
1311874902.890137 1.173445 9.662963 0.371192
1311874902.893662 0.993836 9.662963 0.179609
1311874902.894643 0.993836 9.662963 0.179609
1311874902.897910 1.089628 9.662963 0.371192
1311874902.899065 1.089628 9.662963 0.371192
1311874902.900162 1.089628 9.662963 0.371192
1311874902.901291 1.089628 9.662963 0.371192
1311874902.904785 1.161471 9.495328 0.323296
1311874902.905762 1.161471 9.495328 0.323296
1311874902.909040 0.993836 9.471380 0.371192
1311874902.910037 0.993836 9.471380 0.371192
1311874902.913648 1.185419 9.375588 0.706462
1311874902.914661 1.185419 9.375588 0.706462
1311874902.917913 1.185419 9.423484 0.562775
1311874902.918889 1.185419 9.423484 0.562775
1311874902.920136 1.185419 9.423484 0.562775
1311874902.921289 1.185419 9.423484 0.562775
1311874902.924785 1.185419 9.184006 0.562775
1311874902.925785 1.185419 9.184006 0.562775
1311874902.929160 1.221341 9.112162 0.371192
1311874902.930039 1.221341 9.112162 0.371192
1311874902.933640 1.185419 9.088214 0.371192
1311874902.934659 1.185419 9.088214 0.371192
1311874902.937912 1.221341 9.088214 0.323296
1311874902.938912 1.221341 9.088214 0.323296
1311874902.940160 1.221341 9.088214 0.323296
1311874902.941159 1.221341 9.088214 0.323296
1311874902.944834 1.185419 9.088214 0.371192
1311874902.945769 1.185419 9.088214 0.371192
1311874902.949066 1.185419 9.100188 0.323296
1311874902.950210 1.185419 9.100188 0.323296
1311874902.953037 1.185419 9.136110 0.179609
1311874902.954036 1.185419 9.136110 0.179609
1311874902.957650 1.185419 9.375588 0.371192
1311874902.958663 1.185419 9.375588 0.371192
1311874902.959913 1.185419 9.375588 0.371192
1311874902.961034 1.185419 9.375588 0.371192
1311874902.964151 1.089628 9.184006 0.179609
1311874902.965164 1.089628 9.184006 0.179609
1311874902.968791 1.089628 9.423484 0.371192
1311874902.969766 1.089628 9.423484 0.371192
1311874902.973042 0.993836 9.423484 0.179609
1311874902.974018 0.993836 9.423484 0.179609
1311874902.977639 1.089628 9.471380 0.562775
1311874902.978667 1.089628 9.471380 0.562775
1311874902.979908 1.089628 9.471380 0.562775
1311874902.980887 1.089628 9.471380 0.562775
1311874902.984175 1.173445 9.471380 0.383166
1311874902.985142 1.173445 9.471380 0.383166
1311874902.988647 1.173445 9.567171 0.371192
1311874902.989640 1.173445 9.567171 0.371192
1311874902.992915 1.173445 9.758754 0.395140
1311874902.994013 1.173445 9.758754 0.395140
1311874902.995147 1.173445 9.758754 0.395140
1311874902.996145 1.173445 9.758754 0.395140
1311874902.999900 1.173445 9.830598 0.275400
1311874903.000910 1.173445 9.830598 0.275400
1311874903.004035 1.185419 9.854546 0.371192
1311874903.005035 1.185419 9.854546 0.371192
1311874903.008638 1.089628 9.758754 0.179609
1311874903.009773 1.089628 9.758754 0.179609
1311874903.010928 1.089628 9.758754 0.179609
1311874903.014036 0.993836 9.662963 0.179609
1311874903.015032 0.993836 9.662963 0.179609
1311874903.018160 0.993836 9.662963 -0.011974
1311874903.019270 0.993836 9.662963 -0.011974
1311874903.022785 0.993836 9.662963 -0.011974
1311874903.023784 0.993836 9.662963 -0.011974
1311874903.025033 0.993836 9.662963 -0.011974
1311874903.026021 0.993836 9.662963 -0.011974
1311874903.029022 0.993836 9.495328 -0.011974
1311874903.030132 0.993836 9.495328 -0.011974
1311874903.033653 0.802253 9.662963 -0.011974
1311874903.034644 0.802253 9.662963 -0.011974
1311874903.035659 0.802253 9.662963 -0.011974
1311874903.039011 0.993836 9.662963 0.179609
1311874903.040035 0.993836 9.662963 0.179609
1311874903.043159 0.993836 9.567171 0.083818
1311874903.044280 0.993836 9.567171 0.083818
1311874903.047782 1.089628 9.662963 0.371192
1311874903.049063 1.089628 9.662963 0.371192
1311874903.050186 1.089628 9.662963 0.371192
1311874903.051164 1.089628 9.662963 0.371192
1311874903.054644 1.173445 9.662963 0.466983
1311874903.055800 1.173445 9.662963 0.466983
1311874903.059052 1.089628 9.662963 0.371192
1311874903.060032 1.089628 9.662963 0.371192
1311874903.063025 0.993836 9.662963 0.562775
1311874903.064014 0.993836 9.662963 0.562775
1311874903.067146 1.137524 9.662963 0.562775
1311874903.068287 1.137524 9.662963 0.562775
1311874903.069772 1.137524 9.662963 0.562775
1311874903.070909 1.137524 9.662963 0.562775
1311874903.074017 1.185419 9.471380 0.466983
1311874903.075158 1.185419 9.471380 0.466983
1311874903.078784 1.185419 9.375588 0.371192
1311874903.079629 1.185419 9.375588 0.371192
1311874903.083034 1.173445 9.279797 0.371192
1311874903.083892 1.173445 9.279797 0.371192
1311874903.085160 1.173445 9.279797 0.371192
1311874903.086293 1.173445 9.279797 0.371192
1311874903.089771 1.089628 9.279797 0.562775
1311874903.090786 1.089628 9.279797 0.562775
1311874903.094011 0.993836 9.184006 0.466983
1311874903.095004 0.993836 9.184006 0.466983
1311874903.098652 0.993836 9.184006 0.562775
1311874903.099643 0.993836 9.184006 0.562775
1311874903.100790 0.993836 9.184006 0.562775
1311874903.104032 0.993836 9.136110 0.562775
1311874903.105030 0.993836 9.136110 0.562775
1311874903.108636 1.137524 9.184006 0.179609
1311874903.109770 1.137524 9.184006 0.179609
1311874903.110791 1.137524 9.184006 0.179609
1311874903.114077 0.886071 9.375588 0.083818
1311874903.115009 0.886071 9.375588 0.083818
1311874903.118643 0.993836 9.471380 0.179609
1311874903.119765 0.993836 9.471380 0.179609
1311874903.120764 0.993836 9.471380 0.179609
1311874903.123899 0.802253 9.471380 0.179609
1311874903.125024 0.802253 9.471380 0.179609
1311874903.128147 0.802253 9.471380 -0.011974
1311874903.129272 0.802253 9.471380 -0.011974
1311874903.132906 0.790279 9.567171 0.083818
1311874903.133927 0.790279 9.567171 0.083818
1311874903.135025 0.790279 9.567171 0.083818
1311874903.136035 0.790279 9.567171 0.083818
1311874903.139033 0.802253 9.662963 -0.011974
1311874903.140032 0.802253 9.662963 -0.011974
1311874903.143641 0.790279 9.830598 -0.011974
1311874903.144780 0.790279 9.830598 -0.011974
1311874903.145778 0.790279 9.830598 -0.011974
1311874903.149036 0.802253 9.854546 0.179609
1311874903.150039 0.802253 9.854546 0.179609
1311874903.153627 0.814227 9.854546 0.371192
1311874903.154645 0.814227 9.854546 0.371192
1311874903.155673 0.814227 9.854546 0.371192
1311874903.159034 0.838175 9.830598 0.562775
1311874903.160031 0.838175 9.830598 0.562775
1311874903.163643 0.993836 9.662963 0.706462
1311874903.164641 0.993836 9.662963 0.706462
1311874903.165629 0.993836 9.662963 0.706462
1311874903.169060 0.802253 9.854546 0.754358
1311874903.170033 0.802253 9.854546 0.754358
1311874903.173638 0.993836 9.854546 0.562775
1311874903.174783 0.993836 9.854546 0.562775
1311874903.175782 0.993836 9.854546 0.562775
1311874903.179033 0.802253 9.842572 0.754358
1311874903.180029 0.802253 9.842572 0.754358
1311874903.183513 0.802253 9.854546 0.754358
1311874903.184904 0.802253 9.854546 0.754358
1311874903.185762 0.802253 9.854546 0.754358
1311874903.189022 0.802253 9.806650 0.850149
1311874903.190016 0.802253 9.806650 0.850149
1311874903.193658 0.886071 9.662963 1.041732
1311874903.194626 0.886071 9.662963 1.041732
1311874903.197898 1.089628 9.567171 0.850149
1311874903.201997 1.089628 9.567171 0.850149
1311874903.202772 0.814227 9.519276 0.945941
1311874903.204582 0.814227 9.519276 0.945941
1311874903.205508 0.814227 9.519276 0.945941
1311874903.206634 0.814227 9.519276 0.945941
1311874903.209915 0.802253 9.471380 0.754358
1311874903.210900 0.802253 9.471380 0.754358
1311874903.214227 0.993836 9.471380 0.466983
1311874903.215127 0.993836 9.471380 0.466983
1311874903.218779 0.802253 9.567171 0.371192
1311874903.219776 0.802253 9.567171 0.371192
1311874903.223047 0.778306 9.519276 0.466983
1311874903.223986 0.778306 9.519276 0.466983
1311874903.227339 0.802253 9.471380 0.371192
1311874903.228634 0.802253 9.471380 0.371192
1311874903.229937 0.802253 9.471380 0.371192
1311874903.230894 0.802253 9.471380 0.371192
1311874903.234012 0.790279 9.567171 0.371192
1311874903.236666 0.790279 9.567171 0.371192
1311874903.238648 0.706462 9.758754 0.371192
1311874903.239691 0.706462 9.758754 0.371192
1311874903.242918 0.802253 9.854546 0.359218
1311874903.243903 0.802253 9.854546 0.359218
1311874903.245152 0.802253 9.854546 0.359218
1311874903.246162 0.802253 9.854546 0.359218
1311874903.249642 0.598697 9.854546 0.371192
1311874903.250773 0.598697 9.854546 0.371192
1311874903.253907 0.754358 9.854546 0.275400
1311874903.255021 0.754358 9.854546 0.275400
1311874903.258014 0.790279 9.854546 0.275400
1311874903.259014 0.790279 9.854546 0.275400
1311874903.260630 0.790279 9.854546 0.275400
1311874903.263773 0.802253 9.866520 0.179609
1311874903.264759 0.802253 9.866520 0.179609
1311874903.267914 0.706462 9.902441 0.179609
1311874903.269012 0.706462 9.902441 0.179609
1311874903.270630 0.706462 9.902441 0.179609
1311874903.273761 0.706462 9.854546 0.083818
1311874903.274758 0.706462 9.854546 0.083818
1311874903.278021 0.706462 9.830598 -0.011974
1311874903.279049 0.706462 9.830598 -0.011974
1311874903.280278 0.706462 9.830598 -0.011974
1311874903.281636 0.706462 9.830598 -0.011974
1311874903.284886 0.838175 9.662963 0.275400
1311874903.285876 0.838175 9.662963 0.275400
1311874903.289124 0.790279 9.758754 0.371192
1311874903.290121 0.790279 9.758754 0.371192
1311874903.293652 0.754358 9.567171 0.371192
1311874903.294706 0.754358 9.567171 0.371192
1311874903.297896 0.802253 9.447432 0.371192
1311874903.298893 0.802253 9.447432 0.371192
1311874903.300134 0.802253 9.447432 0.371192
1311874903.301252 0.802253 9.447432 0.371192
1311874903.304771 0.598697 9.471380 0.466983
1311874903.305972 0.598697 9.471380 0.466983
1311874903.309024 0.706462 9.567171 0.754358
1311874903.310012 0.706462 9.567171 0.754358
1311874903.313644 0.598697 9.471380 0.945941
1311874903.314632 0.598697 9.471380 0.945941
1311874903.317888 0.598697 9.471380 0.945941
1311874903.318901 0.598697 9.471380 0.945941
1311874903.320158 0.598697 9.471380 0.945941
1311874903.321153 0.598697 9.471380 0.945941
1311874903.324766 0.598697 9.423484 1.089628
1311874903.325770 0.598697 9.423484 1.089628
1311874903.329020 0.754358 9.519276 1.137524
1311874903.330024 0.754358 9.519276 1.137524
1311874903.333642 0.706462 9.495328 1.149497
1311874903.334758 0.706462 9.495328 1.149497
1311874903.335754 0.706462 9.495328 1.149497
1311874903.339022 0.502905 9.471380 1.329106
1311874903.340004 0.502905 9.471380 1.329106
1311874903.343160 0.502905 9.471380 1.329106
1311874903.344272 0.502905 9.471380 1.329106
1311874903.347769 0.502905 9.471380 1.185419
1311874903.348939 0.502905 9.471380 1.185419
1311874903.350010 0.502905 9.471380 1.185419
1311874903.351007 0.502905 9.471380 1.185419
1311874903.354159 0.502905 9.662963 1.137524
1311874903.355143 0.502905 9.662963 1.137524
1311874903.358746 0.598697 9.662963 0.754358
1311874903.359766 0.598697 9.662963 0.754358
1311874903.363548 0.598697 9.662963 0.754358
1311874903.364646 0.598697 9.662963 0.754358
1311874903.367764 0.407114 9.758754 0.562775
1311874903.368749 0.407114 9.758754 0.562775
1311874903.370008 0.407114 9.758754 0.562775
1311874903.370998 0.407114 9.758754 0.562775
1311874903.374135 0.455009 9.806650 0.371192
1311874903.375134 0.455009 9.806650 0.371192
1311874903.378655 0.502905 9.842572 0.371192
1311874903.379647 0.502905 9.842572 0.371192
1311874903.382882 0.502905 9.854546 0.179609
1311874903.383901 0.502905 9.854546 0.179609
1311874903.385151 0.502905 9.854546 0.179609
1311874903.386111 0.502905 9.854546 0.179609
1311874903.389792 0.502905 9.806650 0.179609
1311874903.391032 0.502905 9.806650 0.179609
1311874903.394057 0.419088 9.662963 0.083818
1311874903.395002 0.419088 9.662963 0.083818
1311874903.398041 0.502905 9.519276 0.179609
1311874903.399026 0.502905 9.519276 0.179609
1311874903.402323 0.455009 9.662963 0.035922
1311874903.403672 0.455009 9.662963 0.035922
1311874903.404886 0.455009 9.662963 0.035922
1311874903.405871 0.455009 9.662963 0.035922
1311874903.409145 0.598697 9.495328 0.466983
1311874903.410127 0.598697 9.495328 0.466983
1311874903.413806 0.706462 9.423484 0.658566
1311874903.414777 0.706462 9.423484 0.658566
1311874903.418028 0.802253 9.423484 0.754358
1311874903.419026 0.802253 9.423484 0.754358
1311874903.420663 0.802253 9.423484 0.754358
1311874903.423768 0.814227 9.184006 0.945941
1311874903.424885 0.814227 9.184006 0.945941
1311874903.427908 0.802253 9.088214 0.945941
1311874903.429013 0.802253 9.088214 0.945941
1311874903.430664 0.802253 9.088214 0.945941
1311874903.433768 0.802253 9.040318 1.089628
1311874903.434757 0.802253 9.040318 1.089628
1311874903.438358 0.790279 8.992423 1.041732
1311874903.439570 0.790279 8.992423 1.041732
1311874903.440623 0.790279 8.992423 1.041732
1311874903.443904 0.886071 9.088214 1.137524
1311874903.444897 0.886071 9.088214 1.137524
1311874903.448046 0.790279 9.088214 1.041732
1311874903.449014 0.790279 9.088214 1.041732
1311874903.452660 0.790279 9.088214 1.137524
1311874903.453635 0.790279 9.088214 1.137524
1311874903.454886 0.790279 9.088214 1.137524
1311874903.455888 0.790279 9.088214 1.137524
1311874903.458996 0.802253 9.088214 1.329106
1311874903.460134 0.802253 9.088214 1.329106
1311874903.463641 0.802253 9.088214 1.137524
1311874903.464772 0.802253 9.088214 1.137524
1311874903.467890 0.790279 9.076240 1.113576
1311874903.468871 0.790279 9.076240 1.113576
1311874903.470126 0.790279 9.076240 1.113576
1311874903.471144 0.790279 9.076240 1.113576
1311874903.474767 0.993836 8.992423 0.945941
1311874903.475734 0.993836 8.992423 0.945941
1311874903.479086 0.814227 8.896631 0.658566
1311874903.480028 0.814227 8.896631 0.658566
1311874903.483786 0.838175 8.800840 0.945941
1311874903.484752 0.838175 8.800840 0.945941
1311874903.487879 0.790279 8.896631 0.754358
1311874903.488999 0.790279 8.896631 0.754358
1311874903.490129 0.790279 8.896631 0.754358
1311874903.491273 0.790279 8.896631 0.754358
1311874903.494767 0.802253 9.088214 0.754358
1311874903.495819 0.802253 9.088214 0.754358
1311874903.498899 0.993836 8.992423 0.754358
1311874903.500032 0.993836 8.992423 0.754358
1311874903.503152 0.790279 9.088214 0.658566
1311874903.504314 0.790279 9.088214 0.658566
1311874903.507754 0.706462 9.100188 0.562775
1311874903.508884 0.706462 9.100188 0.562775
1311874903.510131 0.706462 9.100188 0.562775
1311874903.511147 0.706462 9.100188 0.562775
1311874903.514774 0.802253 9.279797 0.754358
1311874903.515740 0.802253 9.279797 0.754358
1311874903.519004 0.598697 9.279797 0.706462
1311874903.520034 0.598697 9.279797 0.706462
1311874903.523263 0.598697 9.447432 0.658566
1311874903.524235 0.598697 9.447432 0.658566
1311874903.527834 0.598697 9.375588 0.658566
1311874903.528883 0.598697 9.375588 0.658566
1311874903.530142 0.598697 9.375588 0.658566
1311874903.531789 0.598697 9.375588 0.658566
1311874903.534637 0.754358 9.423484 0.754358
1311874903.535629 0.754358 9.423484 0.754358
1311874903.539011 0.778306 9.423484 1.089628
1311874903.540022 0.778306 9.423484 1.089628
1311874903.543679 0.754358 9.447432 1.089628
1311874903.544625 0.754358 9.447432 1.089628
1311874903.545635 0.754358 9.447432 1.089628
1311874903.549023 0.598697 9.471380 1.125550
1311874903.550003 0.598697 9.471380 1.125550
1311874903.553632 0.802253 9.375588 0.850149
1311874903.554638 0.802253 9.375588 0.850149
1311874903.557874 0.598697 9.423484 1.137524
1311874903.558868 0.598697 9.423484 1.137524
1311874903.560136 0.598697 9.423484 1.137524
1311874903.561283 0.598697 9.423484 1.137524
1311874903.564762 0.754358 9.279797 0.945941
1311874903.565796 0.754358 9.279797 0.945941
1311874903.569019 0.790279 9.184006 0.850149
1311874903.570004 0.790279 9.184006 0.850149
1311874903.573629 0.598697 9.088214 0.706462
1311874903.574620 0.598697 9.088214 0.706462
1311874903.577890 0.598697 9.088214 0.754358
1311874903.578901 0.598697 9.088214 0.754358
1311874903.580144 0.598697 9.088214 0.754358
1311874903.581149 0.598697 9.088214 0.754358
1311874903.584756 0.598697 9.184006 0.754358
1311874903.585739 0.598697 9.184006 0.754358
1311874903.588871 0.455009 9.471380 0.778306
1311874903.589885 0.455009 9.471380 0.778306
1311874903.593018 0.502905 9.483354 0.945941
1311874903.594032 0.502905 9.483354 0.945941
1311874903.597635 0.407114 9.471380 0.754358
1311874903.598759 0.407114 9.471380 0.754358
1311874903.599751 0.407114 9.471380 0.754358
1311874903.602920 0.598697 9.471380 0.754358
1311874903.604000 0.598697 9.471380 0.754358
1311874903.605626 0.598697 9.471380 0.754358
1311874903.608846 0.502905 9.567171 0.754358
1311874903.609753 0.502905 9.567171 0.754358
1311874903.612897 0.455009 9.662963 0.754358
1311874903.613901 0.455009 9.662963 0.754358
1311874903.615113 0.455009 9.662963 0.754358
1311874903.616120 0.455009 9.662963 0.754358
1311874903.619750 0.598697 9.662963 0.562775
1311874903.620757 0.598697 9.662963 0.562775
1311874903.624020 0.598697 9.662963 0.371192
1311874903.625012 0.598697 9.662963 0.371192
1311874903.628633 0.598697 9.662963 0.754358
1311874903.629751 0.598697 9.662963 0.754358
1311874903.632899 0.778306 9.495328 0.562775
1311874903.634024 0.778306 9.495328 0.562775
1311874903.635127 0.778306 9.495328 0.562775
1311874903.636254 0.778306 9.495328 0.562775
1311874903.639755 0.802253 9.423484 0.562775
1311874903.640778 0.802253 9.423484 0.562775
1311874903.644040 0.598697 9.184006 0.466983
1311874903.645018 0.598697 9.184006 0.466983
1311874903.648164 0.706462 9.136110 0.466983
1311874903.649618 0.706462 9.136110 0.466983
1311874903.652896 0.802253 9.088214 0.419088
1311874903.653880 0.802253 9.088214 0.419088
1311874903.655161 0.802253 9.088214 0.419088
1311874903.656132 0.802253 9.088214 0.419088
1311874903.659756 0.802253 9.184006 0.742384
1311874903.660770 0.802253 9.184006 0.742384
1311874903.664026 0.802253 9.112162 0.658566
1311874903.665009 0.802253 9.112162 0.658566
1311874903.668273 0.778306 9.184006 0.658566
1311874903.669637 0.778306 9.184006 0.658566
1311874903.672758 0.838175 9.088214 0.754358
1311874903.673869 0.838175 9.088214 0.754358
1311874903.674996 0.838175 9.088214 0.754358
1311874903.676117 0.838175 9.088214 0.754358
1311874903.679640 0.802253 9.184006 0.850149
1311874903.680776 0.802253 9.184006 0.850149
1311874903.683897 0.802253 9.279797 1.137524
1311874903.685004 0.802253 9.279797 1.137524
1311874903.687874 0.802253 9.279797 1.137524
1311874903.688985 0.802253 9.279797 1.137524
1311874903.690490 0.802253 9.279797 1.137524
1311874903.691617 0.802253 9.279797 1.137524
1311874903.694987 0.802253 9.279797 1.185419
1311874903.698013 0.598697 9.375588 1.329106
1311874903.699009 0.598697 9.375588 1.329106
1311874903.702638 0.790279 9.471380 1.137524
1311874903.703621 0.790279 9.471380 1.137524
1311874903.704873 0.790279 9.471380 1.137524
1311874903.705993 0.790279 9.471380 1.137524
1311874903.709148 0.802253 9.471380 1.041732
1311874903.710117 0.802253 9.471380 1.041732
1311874903.713650 0.706462 9.471380 1.089628
1311874903.714743 0.706462 9.471380 1.089628
1311874903.717946 0.706462 9.519276 1.137524
1311874903.718935 0.706462 9.519276 1.137524
1311874903.720114 0.706462 9.519276 1.137524
1311874903.721268 0.706462 9.519276 1.137524
1311874903.724777 0.754358 9.495328 1.089628
1311874903.725775 0.754358 9.495328 1.089628
1311874903.729019 0.598697 9.758754 0.945941
1311874903.729998 0.598697 9.758754 0.945941
1311874903.733636 0.598697 9.662963 0.945941
1311874903.734741 0.598697 9.662963 0.945941
1311874903.735736 0.598697 9.662963 0.945941
1311874903.739031 0.802253 9.758754 0.754358
1311874903.740007 0.802253 9.758754 0.754358
1311874903.743644 0.838175 9.854546 0.945941
1311874903.744777 0.838175 9.854546 0.945941
1311874903.745756 0.838175 9.854546 0.945941
1311874903.749017 0.802253 9.854546 0.754358
1311874903.749998 0.802253 9.854546 0.754358
1311874903.753621 0.802253 9.854546 0.658566
1311874903.754755 0.802253 9.854546 0.658566
1311874903.755753 0.802253 9.854546 0.658566
1311874903.759007 0.802253 9.866520 0.754358
1311874903.760043 0.802253 9.866520 0.754358
1311874903.763385 0.802253 9.854546 0.754358
1311874903.764645 0.802253 9.854546 0.754358
1311874903.767894 0.802253 9.854546 0.466983
1311874903.768878 0.802253 9.854546 0.466983
1311874903.770129 0.802253 9.854546 0.466983
1311874903.771123 0.802253 9.854546 0.466983
1311874903.774754 0.802253 9.854546 0.754358
1311874903.775769 0.802253 9.854546 0.754358
1311874903.779016 0.802253 9.854546 0.945941
1311874903.780010 0.802253 9.854546 0.945941
1311874903.783636 0.802253 9.758754 0.754358
1311874903.784627 0.802253 9.758754 0.754358
1311874903.787910 0.802253 9.662963 0.754358
1311874903.788882 0.802253 9.662963 0.754358
1311874903.790129 0.802253 9.662963 0.754358
1311874903.791129 0.802253 9.662963 0.754358
1311874903.794842 0.802253 9.806650 1.041732
1311874903.795755 0.802253 9.806650 1.041732
1311874903.799029 0.802253 9.662963 1.137524
1311874903.800002 0.802253 9.662963 1.137524
1311874903.803262 0.802253 9.662963 1.185419
1311874903.804615 0.802253 9.662963 1.185419
1311874903.807764 0.802253 9.662963 1.233315
1311874903.809248 0.802253 9.662963 1.233315
1311874903.810668 0.802253 9.662963 1.233315
1311874903.813273 0.886071 9.519276 1.233315
1311874903.814285 0.886071 9.519276 1.233315
1311874903.817758 0.802253 9.519276 1.329106
1311874903.818746 0.802253 9.519276 1.329106
1311874903.820002 0.802253 9.519276 1.329106
1311874903.821159 0.802253 9.519276 1.329106
1311874903.824636 0.993836 9.662963 1.520689
1311874903.825754 0.993836 9.662963 1.520689
1311874903.828888 0.993836 9.567171 1.472794
1311874903.830005 0.993836 9.567171 1.472794
1311874903.833009 1.089628 9.495328 1.520689
1311874903.833996 1.089628 9.495328 1.520689
1311874903.837800 1.089628 9.567171 1.520689
1311874903.838753 1.089628 9.567171 1.520689
1311874903.839777 1.089628 9.567171 1.520689
1311874903.842907 1.173445 9.471380 1.520689
1311874903.844010 1.173445 9.471380 1.520689
1311874903.845626 1.173445 9.471380 1.520689
1311874903.848778 1.185419 9.471380 1.137524
1311874903.849746 1.185419 9.471380 1.137524
1311874903.853017 1.089628 9.519276 1.089628
1311874903.854019 1.089628 9.519276 1.089628
1311874903.857618 1.089628 9.471380 0.802253
1311874903.858611 1.089628 9.471380 0.802253
1311874903.859878 1.089628 9.471380 0.802253
1311874903.861010 1.089628 9.471380 0.802253
1311874903.864021 0.802253 9.519276 0.802253
1311874903.865131 0.802253 9.519276 0.802253
1311874903.868638 0.993836 9.567171 0.754358
1311874903.869624 0.993836 9.567171 0.754358
1311874903.872876 1.089628 9.662963 0.754358
1311874903.873869 1.089628 9.662963 0.754358
1311874903.875122 1.089628 9.662963 0.754358
1311874903.876120 1.089628 9.662963 0.754358
1311874903.879749 0.814227 9.854546 0.562775
1311874903.880747 0.814227 9.854546 0.562775
1311874903.884014 1.089628 9.854546 0.754358
1311874903.884992 1.089628 9.854546 0.754358
1311874903.888616 1.137524 10.046129 0.850149
1311874903.889736 1.137524 10.046129 0.850149
1311874903.890747 1.137524 10.046129 0.850149
1311874903.894097 1.173445 10.046129 0.945941
1311874903.895067 1.173445 10.046129 0.945941
1311874903.898633 1.161471 10.141920 0.754358
1311874903.899620 1.161471 10.141920 0.754358
1311874903.902885 1.185419 10.046129 0.754358
1311874903.903872 1.185419 10.046129 0.754358
1311874903.905115 1.185419 10.046129 0.754358
1311874903.906119 1.185419 10.046129 0.754358
1311874903.909772 1.089628 9.950337 0.562775
1311874903.911057 1.089628 9.950337 0.562775
1311874903.914017 1.137524 9.902441 0.562775
1311874903.914984 1.137524 9.902441 0.562775
1311874903.917984 1.173445 9.950337 0.371192
1311874903.918995 1.173445 9.950337 0.371192
1311874903.922614 1.185419 9.902441 0.371192
1311874903.923608 1.185419 9.902441 0.371192
1311874903.924604 1.185419 9.902441 0.371192
1311874903.927869 1.173445 9.854546 0.371192
1311874903.929010 1.173445 9.854546 0.371192
1311874903.930642 1.173445 9.854546 0.371192
1311874903.933753 1.185419 9.854546 0.371192
1311874903.934755 1.185419 9.854546 0.371192
1311874903.938009 1.185419 9.902441 0.466983
1311874903.939001 1.185419 9.902441 0.466983
1311874903.940261 1.185419 9.902441 0.466983
1311874903.941628 1.185419 9.902441 0.466983
1311874903.944885 1.269237 9.854546 0.275400
1311874903.945908 1.269237 9.854546 0.275400
1311874903.949144 1.269237 9.854546 0.275400
1311874903.950141 1.269237 9.854546 0.275400
1311874903.953626 1.185419 9.519276 0.179609
1311874903.954609 1.185419 9.519276 0.179609
1311874903.957882 1.269237 9.471380 0.359218
1311874903.958877 1.269237 9.471380 0.359218
1311874903.960123 1.269237 9.471380 0.359218
1311874903.961264 1.269237 9.471380 0.359218
1311874903.964755 1.173445 9.184006 0.323296
1311874903.965783 1.173445 9.184006 0.323296
1311874903.969006 1.089628 9.112162 0.371192
1311874903.969988 1.089628 9.112162 0.371192
1311874903.973891 0.993836 9.184006 0.562775
1311874903.974767 0.993836 9.184006 0.562775
1311874903.975729 0.993836 9.184006 0.562775
1311874903.979003 1.173445 9.088214 0.730410
1311874903.980013 1.173445 9.088214 0.730410
1311874903.983629 1.089628 9.136110 0.658566
1311874903.984760 1.089628 9.136110 0.658566
1311874903.985870 1.089628 9.136110 0.658566
1311874903.988984 1.185419 9.112162 0.730410
1311874903.990003 1.185419 9.112162 0.730410
1311874903.993660 1.221341 9.279797 0.466983
1311874903.994621 1.221341 9.279797 0.466983
1311874903.997887 1.185419 9.375588 0.658566
1311874903.998871 1.185419 9.375588 0.658566
1311874904.000109 1.185419 9.375588 0.658566
1311874904.001122 1.185419 9.375588 0.658566
1311874904.004758 1.173445 9.184006 0.754358
1311874904.005754 1.173445 9.184006 0.754358
1311874904.009000 1.089628 9.279797 0.562775
1311874904.010014 1.089628 9.279797 0.562775
1311874904.013635 1.089628 9.279797 0.742384
1311874904.014634 1.089628 9.279797 0.742384
1311874904.017870 1.137524 9.184006 0.754358
1311874904.018904 1.137524 9.184006 0.754358
1311874904.020153 1.137524 9.184006 0.754358
1311874904.021113 1.137524 9.184006 0.754358
1311874904.024753 0.886071 9.471380 0.754358
1311874904.025748 0.886071 9.471380 0.754358
1311874904.028997 0.993836 9.471380 0.754358
1311874904.030008 0.993836 9.471380 0.754358
1311874904.033016 1.089628 9.662963 0.850149
1311874904.034007 1.089628 9.662963 0.850149
1311874904.037501 0.993836 9.878494 0.850149
1311874904.038623 0.993836 9.878494 0.850149
1311874904.039874 0.993836 9.878494 0.850149
1311874904.040879 0.993836 9.878494 0.850149
1311874904.044029 0.993836 9.878494 0.706462
1311874904.045130 0.993836 9.878494 0.706462
1311874904.048619 1.173445 10.141920 0.658566
1311874904.049808 1.173445 10.141920 0.658566
1311874904.052888 1.173445 10.046129 0.562775
1311874904.053884 1.173445 10.046129 0.562775
1311874904.055126 1.173445 10.046129 0.562775
1311874904.056123 1.173445 10.046129 0.562775
1311874904.059752 1.185419 10.046129 0.179609
1311874904.060877 1.185419 10.046129 0.179609
1311874904.064016 1.185419 9.950337 -0.059870
1311874904.064998 1.185419 9.950337 -0.059870
1311874904.068263 1.137524 9.854546 -0.059870
1311874904.069628 1.137524 9.854546 -0.059870
1311874904.072873 1.173445 9.567171 -0.203557
1311874904.073865 1.173445 9.567171 -0.203557
1311874904.075118 1.173445 9.567171 -0.203557
1311874904.076112 1.173445 9.567171 -0.203557
1311874904.079633 1.185419 9.567171 -0.203557
1311874904.080759 1.185419 9.567171 -0.203557
1311874904.084010 1.185419 9.662963 -0.395140
1311874904.085001 1.185419 9.662963 -0.395140
1311874904.088637 1.173445 9.662963 -0.443035
1311874904.089644 1.173445 9.662963 -0.443035
1311874904.092882 1.185419 9.567171 -0.682514
1311874904.094008 1.185419 9.567171 -0.682514
1311874904.095107 1.185419 9.567171 -0.682514
1311874904.096244 1.185419 9.567171 -0.682514
1311874904.099893 1.185419 9.567171 -0.443035
1311874904.100865 1.185419 9.567171 -0.443035
1311874904.104009 1.365028 9.519276 -0.395140
1311874904.105138 1.365028 9.519276 -0.395140
1311874904.108955 1.269237 9.567171 -0.203557
1311874904.109906 1.269237 9.567171 -0.203557
1311874904.110849 1.269237 9.567171 -0.203557
1311874904.114192 1.365028 9.471380 -0.347244
1311874904.115124 1.365028 9.471380 -0.347244
1311874904.118764 1.472794 9.375588 -0.203557
1311874904.119762 1.472794 9.375588 -0.203557
1311874904.122877 1.556611 9.184006 -0.203557
1311874904.124017 1.556611 9.184006 -0.203557
1311874904.125483 1.556611 9.184006 -0.203557
1311874904.126660 1.556611 9.184006 -0.203557
1311874904.129942 1.556611 9.184006 -0.203557
1311874904.130868 1.556611 9.184006 -0.203557
1311874904.134125 1.556611 9.112162 -0.107765
1311874904.135113 1.556611 9.112162 -0.107765
1311874904.138614 1.472794 9.088214 -0.059870
1311874904.139668 1.472794 9.088214 -0.059870
1311874904.142902 1.472794 9.088214 -0.035922
1311874904.143883 1.472794 9.088214 -0.035922
1311874904.145142 1.472794 9.088214 -0.035922
1311874904.146108 1.472794 9.088214 -0.035922
1311874904.149766 1.472794 9.088214 -0.107765
1311874904.150747 1.472794 9.088214 -0.107765
1311874904.153857 1.365028 9.184006 -0.011974
1311874904.154873 1.365028 9.184006 -0.011974
1311874904.157981 1.472794 9.184006 -0.011974
1311874904.158995 1.472794 9.184006 -0.011974
1311874904.160228 1.472794 9.184006 -0.011974
1311874904.161646 1.472794 9.184006 -0.011974
1311874904.164879 1.365028 9.184006 0.083818
1311874904.165868 1.365028 9.184006 0.083818
1311874904.169111 1.520689 9.279797 0.466983
1311874904.170112 1.520689 9.279797 0.466983
1311874904.173782 1.556611 9.136110 0.371192
1311874904.174747 1.556611 9.136110 0.371192
1311874904.177878 1.365028 9.279797 0.323296
1311874904.178888 1.365028 9.279797 0.323296
1311874904.180101 1.365028 9.279797 0.323296
1311874904.181266 1.365028 9.279797 0.323296
1311874904.184759 1.365028 9.471380 0.371192
1311874904.185745 1.365028 9.471380 0.371192
1311874904.189019 1.365028 9.279797 0.371192
1311874904.190011 1.365028 9.279797 0.371192
1311874904.193731 1.221341 9.184006 0.179609
1311874904.194615 1.221341 9.184006 0.179609
1311874904.197938 1.365028 9.184006 0.323296
1311874904.198850 1.365028 9.184006 0.323296
1311874904.200115 1.365028 9.184006 0.323296
1311874904.201110 1.365028 9.184006 0.323296
1311874904.204758 1.365028 9.279797 0.179609
1311874904.205790 1.365028 9.279797 0.179609
1311874904.209002 1.365028 9.423484 0.083818
1311874904.210019 1.365028 9.423484 0.083818
1311874904.213070 1.365028 9.447432 -0.011974
1311874904.214035 1.365028 9.447432 -0.011974
1311874904.215262 1.365028 9.447432 -0.011974
1311874904.216263 1.365028 9.447432 -0.011974
1311874904.219759 1.269237 9.447432 0.275400
1311874904.220902 1.269237 9.447432 0.275400
1311874904.224004 1.365028 9.471380 0.347244
1311874904.225119 1.365028 9.471380 0.347244
1311874904.228622 1.365028 9.471380 0.419088
1311874904.229746 1.365028 9.471380 0.419088
1311874904.232884 1.365028 9.471380 0.658566
1311874904.233872 1.365028 9.471380 0.658566
1311874904.235111 1.365028 9.471380 0.658566
1311874904.236118 1.365028 9.471380 0.658566
1311874904.239756 1.365028 9.471380 0.562775
1311874904.240727 1.365028 9.471380 0.562775
1311874904.243876 1.365028 9.519276 0.562775
1311874904.245004 1.365028 9.519276 0.562775
1311874904.248618 1.365028 9.483354 0.371192
1311874904.249741 1.365028 9.483354 0.371192
1311874904.250728 1.365028 9.483354 0.371192
1311874904.253856 1.269237 9.471380 0.035922
1311874904.255006 1.269237 9.471380 0.035922
1311874904.257995 1.365028 9.519276 0.179609
1311874904.258969 1.365028 9.519276 0.179609
1311874904.262707 1.269237 9.567171 0.179609
1311874904.263763 1.269237 9.567171 0.179609
1311874904.264739 1.269237 9.567171 0.179609
1311874904.267998 1.365028 9.471380 0.323296
1311874904.268991 1.365028 9.471380 0.323296
1311874904.272625 1.365028 9.279797 0.083818
1311874904.273606 1.365028 9.279797 0.083818
1311874904.274867 1.365028 9.279797 0.083818
1311874904.275860 1.365028 9.279797 0.083818
1311874904.278993 1.365028 9.184006 -0.011974
1311874904.280005 1.365028 9.184006 -0.011974
1311874904.283636 1.472794 9.100188 0.179609
1311874904.284628 1.472794 9.100188 0.179609
1311874904.285622 1.472794 9.100188 0.179609
1311874904.288981 1.520689 9.088214 -0.011974
1311874904.289995 1.520689 9.088214 -0.011974
1311874904.293005 1.365028 9.279797 -0.107765
1311874904.294028 1.365028 9.279797 -0.107765
1311874904.295622 1.365028 9.279797 -0.107765
1311874904.298130 1.556611 9.279797 -0.107765
1311874904.299115 1.556611 9.279797 -0.107765
1311874904.302624 1.556611 9.459406 -0.011974
1311874904.305732 1.556611 9.459406 -0.011974
1311874904.307117 1.556611 9.423484 -0.011974
1311874904.308101 1.556611 9.423484 -0.011974
1311874904.309803 1.556611 9.423484 -0.011974
1311874904.310743 1.556611 9.423484 -0.011974
1311874904.313992 1.520689 9.471380 -0.059870
1311874904.314974 1.520689 9.471380 -0.059870
1311874904.317991 1.580559 9.471380 -0.011974
1311874904.318988 1.580559 9.471380 -0.011974
1311874904.320250 1.580559 9.471380 -0.011974
1311874904.321611 1.580559 9.471380 -0.011974
1311874904.324765 1.580559 9.519276 -0.011974
1311874904.325901 1.580559 9.519276 -0.011974
1311874904.329053 1.556611 9.471380 -0.035922
1311874904.330028 1.556611 9.471380 -0.035922
1311874904.335536 1.556611 9.567171 -0.011974
1311874904.337179 1.760168 9.423484 -0.011974
1311874904.338259 1.760168 9.423484 -0.011974
1311874904.339758 1.760168 9.423484 -0.011974
1311874904.340874 1.760168 9.423484 -0.011974
1311874904.343994 1.652403 9.459406 -0.011974
1311874904.345007 1.652403 9.459406 -0.011974
1311874904.348279 1.580559 9.471380 -0.011974
1311874904.349620 1.580559 9.471380 -0.011974
1311874904.352864 1.604507 9.375588 0.083818
1311874904.353868 1.604507 9.375588 0.083818
1311874904.354979 1.604507 9.375588 0.083818
1311874904.356120 1.604507 9.375588 0.083818
1311874904.359601 1.556611 9.471380 -0.203557
1311874904.360759 1.556611 9.471380 -0.203557
1311874904.363955 1.544637 9.471380 -0.203557
1311874904.364990 1.544637 9.471380 -0.203557
1311874904.367995 1.556611 9.471380 -0.347244
1311874904.369004 1.556611 9.471380 -0.347244
1311874904.372664 1.556611 9.471380 -0.347244
1311874904.373719 1.556611 9.471380 -0.347244
1311874904.374717 1.556611 9.471380 -0.347244
1311874904.378010 1.520689 9.471380 -0.395140
1311874904.379023 1.520689 9.471380 -0.395140
1311874904.382641 1.556611 9.471380 -0.586723
1311874904.383600 1.556611 9.471380 -0.586723
1311874904.384861 1.556611 9.471380 -0.586723
1311874904.385883 1.556611 9.471380 -0.586723
1311874904.389141 1.556611 9.375588 -0.490931
1311874904.390123 1.556611 9.375588 -0.490931
1311874904.393754 1.544637 9.375588 -0.586723
1311874904.394777 1.544637 9.375588 -0.586723
1311874904.398021 1.221341 9.423484 -0.490931
1311874904.399029 1.221341 9.423484 -0.490931
1311874904.400620 1.221341 9.423484 -0.490931
1311874904.403747 1.556611 9.471380 -0.371192
1311874904.404878 1.556611 9.471380 -0.371192
1311874904.407883 1.472794 9.471380 -0.059870
1311874904.408989 1.472794 9.471380 -0.059870
1311874904.410270 1.472794 9.471380 -0.059870
1311874904.411261 1.472794 9.471380 -0.059870
1311874904.414761 1.556611 9.459406 -0.011974
1311874904.415739 1.556611 9.459406 -0.011974
1311874904.418885 1.556611 9.279797 -0.011974
1311874904.420006 1.556611 9.279797 -0.011974
1311874904.423000 1.760168 9.279797 0.179609
1311874904.423990 1.760168 9.279797 0.179609
1311874904.427245 1.556611 9.279797 0.275400
1311874904.428255 1.556611 9.279797 0.275400
1311874904.429903 1.556611 9.279797 0.275400
1311874904.430888 1.556611 9.279797 0.275400
1311874904.434120 1.556611 9.184006 0.371192
1311874904.435108 1.556611 9.184006 0.371192
1311874904.438743 1.604507 9.088214 0.179609
1311874904.439724 1.604507 9.088214 0.179609
1311874904.442884 1.760168 9.088214 0.179609
1311874904.443996 1.760168 9.088214 0.179609
1311874904.445614 1.760168 9.088214 0.179609
1311874904.448774 1.556611 9.279797 0.275400
1311874904.449774 1.556611 9.279797 0.275400
1311874904.453020 1.604507 9.279797 0.323296
1311874904.454010 1.604507 9.279797 0.323296
1311874904.455500 1.604507 9.279797 0.323296
1311874904.456616 1.604507 9.279797 0.323296
1311874904.459857 1.556611 9.471380 0.347244
1311874904.460935 1.556611 9.471380 0.347244
1311874904.464120 1.568585 9.471380 0.083818
1311874904.465131 1.568585 9.471380 0.083818
1311874904.468744 1.472794 9.662963 0.359218
1311874904.469732 1.472794 9.662963 0.359218
1311874904.472976 1.556611 9.662963 0.179609
1311874904.473970 1.556611 9.662963 0.179609
1311874904.477247 1.472794 9.878494 -0.011974
1311874904.478239 1.472794 9.878494 -0.011974
1311874904.479756 1.472794 9.878494 -0.011974
1311874904.480914 1.472794 9.878494 -0.011974
1311874904.483990 1.365028 9.854546 0.179609
1311874904.485128 1.365028 9.854546 0.179609
1311874904.488620 1.221341 9.854546 -0.059870
1311874904.489591 1.221341 9.854546 -0.059870
1311874904.492878 1.269237 9.854546 -0.203557
1311874904.493932 1.269237 9.854546 -0.203557
1311874904.495131 1.269237 9.854546 -0.203557
1311874904.496517 1.269237 9.854546 -0.203557
1311874904.499735 1.269237 9.806650 -0.395140
1311874904.500933 1.269237 9.806650 -0.395140
1311874904.503981 1.269237 9.902441 -0.395140
1311874904.505115 1.269237 9.902441 -0.395140
1311874904.508635 1.365028 9.842572 -0.347244
1311874904.509737 1.365028 9.842572 -0.347244
1311874904.512864 1.365028 9.758754 -0.107765
1311874904.513996 1.365028 9.758754 -0.107765
1311874904.515134 1.365028 9.758754 -0.107765
1311874904.516222 1.365028 9.758754 -0.107765
1311874904.519881 1.365028 9.662963 -0.371192
1311874904.520868 1.365028 9.662963 -0.371192
1311874904.524000 1.365028 9.471380 -0.395140
1311874904.525115 1.365028 9.471380 -0.395140
1311874904.528750 1.365028 9.567171 -0.347244
1311874904.529790 1.365028 9.567171 -0.347244
1311874904.532869 1.197393 9.662963 -0.395140
1311874904.533991 1.197393 9.662963 -0.395140
1311874904.535128 1.197393 9.662963 -0.395140
1311874904.536248 1.197393 9.662963 -0.395140
1311874904.539734 1.221341 9.662963 -0.203557
1311874904.540899 1.221341 9.662963 -0.203557
1311874904.543999 1.365028 9.662963 -0.023948
1311874904.544998 1.365028 9.662963 -0.023948
1311874904.548619 1.221341 9.662963 -0.203557
1311874904.549613 1.221341 9.662963 -0.203557
1311874904.552879 1.365028 9.662963 0.179609
1311874904.553879 1.365028 9.662963 0.179609
1311874904.555091 1.365028 9.662963 0.179609
1311874904.556085 1.365028 9.662963 0.179609
1311874904.559642 1.269237 9.662963 0.323296
1311874904.560741 1.269237 9.662963 0.323296
1311874904.563993 1.365028 9.495328 0.371192
1311874904.564986 1.365028 9.495328 0.371192
1311874904.568246 1.185419 9.375588 0.179609
1311874904.569618 1.185419 9.375588 0.179609
1311874904.572852 1.185419 9.471380 0.179609
1311874904.573866 1.185419 9.471380 0.179609
1311874904.574995 1.185419 9.471380 0.179609
1311874904.576114 1.185419 9.471380 0.179609
1311874904.579633 1.221341 9.279797 0.275400
1311874904.580837 1.221341 9.279797 0.275400
1311874904.584001 1.472794 9.279797 0.371192
1311874904.585006 1.472794 9.279797 0.371192
1311874904.587973 1.365028 9.184006 0.562775
1311874904.588993 1.365028 9.184006 0.562775
1311874904.592262 1.365028 9.112162 0.754358
1311874904.593613 1.365028 9.112162 0.754358
1311874904.594892 1.365028 9.112162 0.754358
1311874904.595862 1.365028 9.112162 0.754358
1311874904.599108 1.556611 9.184006 0.466983
1311874904.602918 1.556611 9.184006 0.466983
1311874904.603744 1.568585 9.088214 0.754358
1311874904.604856 1.568585 9.088214 0.754358
1311874904.607985 1.580559 9.088214 0.706462
1311874904.608967 1.580559 9.088214 0.706462
1311874904.612617 1.556611 9.088214 0.466983
1311874904.613610 1.556611 9.088214 0.466983
1311874904.614878 1.556611 9.088214 0.466983
1311874904.615876 1.556611 9.088214 0.466983
1311874904.618971 1.365028 9.184006 0.371192
1311874904.620113 1.365028 9.184006 0.371192
1311874904.623619 1.269237 9.279797 0.371192
1311874904.624738 1.269237 9.279797 0.371192
1311874904.627862 1.269237 9.279797 0.371192
1311874904.628996 1.269237 9.279797 0.371192
1311874904.630139 1.269237 9.279797 0.371192
1311874904.631310 1.269237 9.279797 0.371192
1311874904.634743 1.185419 9.184006 0.179609
1311874904.635741 1.185419 9.184006 0.179609
1311874904.639037 1.365028 9.184006 0.562775
1311874904.640140 1.365028 9.184006 0.562775
1311874904.643625 1.556611 9.088214 0.658566
1311874904.644733 1.556611 9.088214 0.658566
1311874904.647872 1.556611 8.896631 0.658566
1311874904.648847 1.556611 8.896631 0.658566
1311874904.650114 1.556611 8.896631 0.658566
1311874904.651130 1.556611 8.896631 0.658566
1311874904.654739 1.556611 8.896631 0.371192
1311874904.655740 1.556611 8.896631 0.371192
1311874904.659095 1.855959 8.896631 0.658566
1311874904.660112 1.855959 8.896631 0.658566
1311874904.663615 1.855959 8.896631 0.706462
1311874904.664744 1.855959 8.896631 0.706462
1311874904.667899 1.760168 8.896631 0.754358
1311874904.668860 1.760168 8.896631 0.754358
1311874904.670116 1.760168 8.896631 0.754358
1311874904.671106 1.760168 8.896631 0.754358
1311874904.674736 1.760168 8.896631 0.754358
1311874904.675739 1.760168 8.896631 0.754358
1311874904.678864 1.927803 8.896631 0.742384
1311874904.679991 1.927803 8.896631 0.742384
1311874904.682880 1.652403 9.088214 0.754358
1311874904.683996 1.652403 9.088214 0.754358
1311874904.685481 1.652403 9.088214 0.754358
1311874904.686619 1.652403 9.088214 0.754358
1311874904.689854 1.760168 9.088214 0.466983
1311874904.690863 1.760168 9.088214 0.466983
1311874904.694145 1.604507 9.088214 0.562775
1311874904.695190 1.604507 9.088214 0.562775
1311874904.698615 1.760168 9.088214 0.371192
1311874904.699758 1.760168 9.088214 0.371192
1311874904.703015 1.927803 9.088214 0.083818
1311874904.703977 1.927803 9.088214 0.083818
1311874904.707128 1.760168 9.088214 0.035922
1311874904.708233 1.760168 9.088214 0.035922
1311874904.709727 1.760168 9.088214 0.035922
1311874904.710853 1.760168 9.088214 0.035922
1311874904.714005 1.760168 9.112162 0.083818
1311874904.714992 1.760168 9.112162 0.083818
1311874904.718495 1.855959 9.136110 -0.203557
1311874904.719589 1.855959 9.136110 -0.203557
1311874904.722866 1.760168 9.375588 -0.203557
1311874904.723860 1.760168 9.375588 -0.203557
1311874904.725111 1.760168 9.375588 -0.203557
1311874904.726113 1.760168 9.375588 -0.203557
1311874904.729796 1.760168 9.423484 -0.490931
1311874904.730746 1.760168 9.423484 -0.490931
1311874904.734015 1.760168 9.519276 -0.407114
1311874904.734981 1.760168 9.519276 -0.407114
1311874904.738615 1.556611 9.806650 -0.395140
1311874904.739597 1.556611 9.806650 -0.395140
1311874904.742885 1.652403 9.662963 -0.371192
1311874904.743863 1.652403 9.662963 -0.371192
1311874904.745124 1.652403 9.662963 -0.371192
1311874904.746112 1.652403 9.662963 -0.371192
1311874904.749762 1.556611 9.854546 -0.203557
1311874904.750721 1.556611 9.854546 -0.203557
1311874904.753975 1.556611 9.854546 -0.203557
1311874904.754980 1.556611 9.854546 -0.203557
1311874904.758612 1.604507 9.950337 -0.107765
1311874904.759645 1.604507 9.950337 -0.107765
1311874904.761804 1.604507 9.950337 -0.107765
1311874904.763899 1.520689 10.046129 -0.011974
1311874904.764984 1.520689 10.046129 -0.011974
1311874904.767870 1.556611 10.046129 0.083818
1311874904.768977 1.556611 10.046129 0.083818
1311874904.770596 1.556611 10.046129 0.083818
1311874904.773606 1.365028 10.046129 -0.011974
1311874904.774722 1.365028 10.046129 -0.011974
1311874904.777857 1.365028 10.237712 -0.011974
1311874904.778849 1.365028 10.237712 -0.011974
1311874904.780192 1.365028 10.237712 -0.011974
1311874904.781113 1.365028 10.237712 -0.011974
1311874904.784742 1.365028 10.333503 -0.299348
1311874904.785727 1.365028 10.333503 -0.299348
1311874904.788972 1.185419 10.429294 -0.059870
1311874904.789984 1.185419 10.429294 -0.059870
1311874904.792997 1.185419 10.620877 -0.011974
1311874904.794045 1.185419 10.620877 -0.011974
1311874904.795311 1.185419 10.620877 -0.011974
1311874904.796634 1.185419 10.620877 -0.011974
1311874904.799744 1.173445 10.620877 -0.011974
1311874904.800857 1.173445 10.620877 -0.011974
1311874904.803977 1.221341 10.620877 -0.035922
1311874904.804979 1.221341 10.620877 -0.035922
1311874904.808252 1.185419 10.620877 0.179609
1311874904.809763 1.185419 10.620877 0.179609
1311874904.812726 1.185419 10.644825 0.035922
1311874904.813743 1.185419 10.644825 0.035922
1311874904.814988 1.185419 10.644825 0.035922
1311874904.815971 1.185419 10.644825 0.035922
1311874904.818987 1.221341 10.525086 -0.011974
1311874904.820003 1.221341 10.525086 -0.011974
1311874904.823247 1.269237 10.237712 -0.059870
1311874904.824593 1.269237 10.237712 -0.059870
1311874904.827731 1.269237 10.237712 -0.011974
1311874904.828882 1.269237 10.237712 -0.011974
1311874904.830004 1.269237 10.237712 -0.011974
1311874904.831110 1.269237 10.237712 -0.011974
1311874904.834611 1.269237 9.854546 -0.011974
1311874904.835593 1.269237 9.854546 -0.011974
1311874904.838880 1.269237 9.662963 -0.299348
1311874904.839861 1.269237 9.662963 -0.299348
1311874904.843017 1.185419 9.495328 -0.395140
1311874904.844011 1.185419 9.495328 -0.395140
1311874904.847619 1.173445 9.471380 -0.299348
1311874904.848871 1.173445 9.471380 -0.299348
1311874904.849753 1.173445 9.471380 -0.299348
1311874904.852983 1.185419 9.375588 -0.107765
1311874904.854129 1.185419 9.375588 -0.107765
1311874904.857609 1.221341 9.279797 -0.203557
1311874904.858608 1.221341 9.279797 -0.203557
1311874904.859859 1.221341 9.279797 -0.203557
1311874904.860865 1.221341 9.279797 -0.203557
1311874904.864036 1.365028 9.088214 0.083818
1311874904.865107 1.365028 9.088214 0.083818
1311874904.868611 1.472794 9.088214 0.035922
1311874904.869731 1.472794 9.088214 0.035922
1311874904.870760 1.472794 9.088214 0.035922
1311874904.874021 1.556611 8.992423 0.323296
1311874904.874969 1.556611 8.992423 0.323296
1311874904.878618 1.556611 9.088214 0.419088
1311874904.879617 1.556611 9.088214 0.419088
1311874904.882748 1.652403 9.088214 0.466983
1311874904.883888 1.652403 9.088214 0.466983
1311874904.885103 1.652403 9.088214 0.466983
1311874904.886098 1.652403 9.088214 0.466983
1311874904.889726 1.556611 9.136110 0.371192
1311874904.890717 1.556611 9.136110 0.371192
1311874904.894683 1.472794 9.184006 0.323296
1311874904.897612 1.520689 9.279797 0.275400
1311874904.898755 1.520689 9.279797 0.275400
1311874904.899711 1.520689 9.279797 0.275400
1311874904.903020 1.365028 9.279797 0.179609
1311874904.903963 1.365028 9.279797 0.179609
1311874904.907611 1.221341 9.447432 0.359218
1311874904.908746 1.221341 9.447432 0.359218
1311874904.909748 1.221341 9.447432 0.359218
1311874904.912987 1.365028 9.423484 0.323296
1311874904.913996 1.365028 9.423484 0.323296
1311874904.915664 1.365028 9.423484 0.323296
1311874904.918733 1.365028 9.519276 0.371192
1311874904.919749 1.365028 9.519276 0.371192
1311874904.922990 1.269237 9.471380 0.395140
1311874904.923963 1.269237 9.471380 0.395140
1311874904.927609 1.472794 9.471380 0.371192
1311874904.928605 1.472794 9.471380 0.371192
1311874904.929625 1.472794 9.471380 0.371192
1311874904.932996 1.365028 9.471380 0.371192
1311874904.933982 1.365028 9.471380 0.371192
1311874904.937612 1.472794 9.471380 0.179609
1311874904.938580 1.472794 9.471380 0.179609
1311874904.939832 1.472794 9.471380 0.179609
1311874904.940896 1.472794 9.471380 0.179609
1311874904.943858 1.365028 9.471380 0.000000
1311874904.944865 1.365028 9.471380 0.000000
1311874904.947871 1.269237 9.471380 -0.035922
1311874904.948991 1.269237 9.471380 -0.035922
1311874904.950292 1.269237 9.471380 -0.035922
1311874904.951604 1.269237 9.471380 -0.035922
1311874904.954863 1.365028 9.471380 -0.203557
1311874904.955858 1.365028 9.471380 -0.203557
1311874904.958969 1.269237 9.471380 -0.023948
1311874904.960049 1.269237 9.471380 -0.023948
1311874904.963933 1.365028 9.471380 -0.203557
1311874904.964724 1.365028 9.471380 -0.203557
1311874904.965848 1.365028 9.471380 -0.203557
1311874904.968978 1.269237 9.662963 -0.203557
1311874904.970141 1.269237 9.662963 -0.203557
1311874904.973783 1.365028 9.758754 -0.107765
1311874904.974775 1.365028 9.758754 -0.107765
1311874904.975773 1.365028 9.758754 -0.107765
1311874904.979005 1.185419 9.758754 -0.107765
1311874904.979994 1.185419 9.758754 -0.107765
1311874904.983629 1.137524 9.866520 -0.107765
1311874904.984597 1.137524 9.866520 -0.107765
1311874904.985624 1.137524 9.866520 -0.107765
1311874904.988835 1.185419 9.902441 -0.059870
1311874904.989984 1.185419 9.902441 -0.059870
1311874904.993029 1.089628 10.046129 -0.023948
1311874904.993989 1.089628 10.046129 -0.023948
1311874904.995312 1.089628 10.046129 -0.023948
1311874904.996606 1.089628 10.046129 -0.023948
1311874904.999728 1.173445 10.046129 0.179609
1311874905.000844 1.173445 10.046129 0.179609
1311874905.003975 1.161471 10.046129 0.179609
1311874905.005096 1.161471 10.046129 0.179609
1311874905.008619 1.173445 9.854546 0.275400
1311874905.009611 1.173445 9.854546 0.275400
1311874905.012854 1.185419 9.758754 0.323296
1311874905.013843 1.185419 9.758754 0.323296
1311874905.015099 1.185419 9.758754 0.323296
1311874905.016096 1.185419 9.758754 0.323296
1311874905.019600 1.173445 9.662963 0.371192
1311874905.020721 1.173445 9.662963 0.371192
1311874905.023859 1.173445 9.471380 0.323296
1311874905.024982 1.173445 9.471380 0.323296
1311874905.027968 1.173445 9.471380 0.275400
1311874905.028987 1.173445 9.471380 0.275400
1311874905.032608 1.161471 9.483354 0.371192
1311874905.033605 1.161471 9.483354 0.371192
1311874905.034871 1.161471 9.483354 0.371192
1311874905.035859 1.161471 9.483354 0.371192
1311874905.038968 0.993836 9.758754 0.383166
1311874905.040134 0.993836 9.758754 0.383166
1311874905.043617 1.089628 9.842572 0.371192
1311874905.044611 1.089628 9.842572 0.371192
1311874905.047872 0.993836 9.854546 0.371192
1311874905.048865 0.993836 9.854546 0.371192
1311874905.050121 0.993836 9.854546 0.371192
1311874905.051119 0.993836 9.854546 0.371192
1311874905.054744 0.993836 10.046129 0.371192
1311874905.055733 0.993836 10.046129 0.371192
1311874905.058980 0.886071 10.237712 0.419088
1311874905.059994 0.886071 10.237712 0.419088
1311874905.063650 0.886071 10.261659 0.275400
1311874905.064599 0.886071 10.261659 0.275400
1311874905.065611 0.886071 10.261659 0.275400
1311874905.068987 0.802253 10.429294 0.371192
1311874905.070012 0.802253 10.429294 0.371192
1311874905.073270 0.886071 10.620877 0.371192
1311874905.074594 0.886071 10.620877 0.371192
1311874905.077771 0.802253 10.608903 0.371192
1311874905.078769 0.802253 10.608903 0.371192
1311874905.080020 0.802253 10.608903 0.371192
1311874905.081097 0.802253 10.608903 0.371192
1311874905.084598 0.802253 10.525086 0.179609
1311874905.085656 0.802253 10.525086 0.179609
1311874905.088861 0.838175 10.429294 -0.011974
1311874905.089836 0.838175 10.429294 -0.011974
1311874905.093025 0.814227 10.237712 -0.059870
1311874905.094033 0.814227 10.237712 -0.059870
1311874905.095095 0.814227 10.237712 -0.059870
1311874905.096206 0.814227 10.237712 -0.059870
1311874905.099737 0.802253 10.333503 -0.107765
1311874905.100829 0.802253 10.333503 -0.107765
1311874905.103880 0.802253 10.285607 0.083818
1311874905.104972 0.802253 10.285607 0.083818
1311874905.108131 0.598697 10.333503 -0.107765
1311874905.109234 0.598697 10.333503 -0.107765
1311874905.112606 0.706462 10.237712 0.000000
1311874905.113728 0.706462 10.237712 0.000000
1311874905.114748 0.706462 10.237712 0.000000
1311874905.117991 0.754358 10.237712 -0.035922
1311874905.118981 0.754358 10.237712 -0.035922
1311874905.120232 0.754358 10.237712 -0.035922
1311874905.121467 0.754358 10.237712 -0.035922
1311874905.124733 0.802253 9.950337 -0.023948
1311874905.125854 0.802253 9.950337 -0.023948
1311874905.128977 0.802253 9.854546 -0.011974
1311874905.130034 0.802253 9.854546 -0.011974
1311874905.132987 0.802253 9.662963 0.011974
1311874905.133976 0.802253 9.662963 0.011974
1311874905.135227 0.802253 9.662963 0.011974
1311874905.136214 0.802253 9.662963 0.011974
1311874905.139722 0.802253 9.471380 -0.107765
1311874905.140904 0.802253 9.471380 -0.107765
1311874905.143992 0.838175 9.279797 -0.011974
1311874905.145011 0.838175 9.279797 -0.011974
1311874905.148153 0.886071 9.184006 0.035922
1311874905.149232 0.886071 9.184006 0.035922
1311874905.152869 0.993836 9.088214 0.371192
1311874905.153871 0.993836 9.088214 0.371192
1311874905.155139 0.993836 9.088214 0.371192
1311874905.156125 0.993836 9.088214 0.371192
1311874905.159613 0.993836 9.112162 0.347244
1311874905.160723 0.993836 9.112162 0.347244
1311874905.163885 0.993836 9.088214 0.371192
1311874905.164960 0.993836 9.088214 0.371192
1311874905.167974 1.185419 9.088214 0.562775
1311874905.168967 1.185419 9.088214 0.562775
1311874905.172597 1.221341 9.076240 0.658566
1311874905.173712 1.221341 9.076240 0.658566
1311874905.174724 1.221341 9.076240 0.658566
1311874905.178024 1.185419 8.992423 0.754358
1311874905.179043 1.185419 8.992423 0.754358
1311874905.180649 1.185419 8.992423 0.754358
1311874905.183787 1.365028 8.992423 0.658566
1311874905.184741 1.365028 8.992423 0.658566
1311874905.187984 1.269237 8.896631 0.562775
1311874905.188977 1.269237 8.896631 0.562775
1311874905.192609 1.365028 8.752944 0.371192
1311874905.193611 1.365028 8.752944 0.371192
1311874905.194889 1.365028 8.752944 0.371192
1311874905.195883 1.365028 8.752944 0.371192
1311874905.199018 1.365028 8.896631 0.371192
1311874905.200090 1.365028 8.896631 0.371192
1311874905.203595 1.269237 8.896631 0.323296
1311874905.204723 1.269237 8.896631 0.323296
1311874905.207857 1.365028 8.896631 0.275400
1311874905.208846 1.365028 8.896631 0.275400
1311874905.210129 1.365028 8.896631 0.275400
1311874905.211109 1.365028 8.896631 0.275400
1311874905.214758 1.365028 8.896631 0.179609
1311874905.215723 1.365028 8.896631 0.179609
1311874905.218837 1.365028 8.896631 0.179609
1311874905.219990 1.365028 8.896631 0.179609
1311874905.223114 1.269237 8.752944 -0.203557
1311874905.224228 1.269237 8.752944 -0.203557
1311874905.227727 1.185419 9.064266 -0.011974
1311874905.228721 1.185419 9.064266 -0.011974
1311874905.230041 1.185419 9.064266 -0.011974
1311874905.231021 1.185419 9.064266 -0.011974
1311874905.234100 1.137524 9.040318 -0.107765
1311874905.235095 1.137524 9.040318 -0.107765
1311874905.238596 0.993836 9.100188 -0.107765
1311874905.239584 0.993836 9.100188 -0.107765
1311874905.242880 0.993836 9.112162 -0.299348
1311874905.243855 0.993836 9.112162 -0.299348
1311874905.245113 0.993836 9.112162 -0.299348
1311874905.246217 0.993836 9.112162 -0.299348
1311874905.249738 0.993836 9.471380 -0.203557
1311874905.250779 0.993836 9.471380 -0.203557
1311874905.253991 0.993836 9.662963 -0.011974
1311874905.254983 0.993836 9.662963 -0.011974
1311874905.257976 0.993836 9.662963 -0.011974
1311874905.258978 0.993836 9.662963 -0.011974
1311874905.260082 0.993836 9.662963 -0.011974
1311874905.261638 0.993836 9.662963 -0.011974
1311874905.264734 1.089628 9.878494 -0.011974
1311874905.265846 1.089628 9.878494 -0.011974
1311874905.268985 1.089628 9.854546 0.083818
1311874905.269962 1.089628 9.854546 0.083818
1311874905.273103 0.993836 9.866520 0.035922
1311874905.274092 0.993836 9.866520 0.035922
1311874905.277726 0.802253 9.854546 0.083818
1311874905.278722 0.802253 9.854546 0.083818
1311874905.279978 0.802253 9.854546 0.083818
1311874905.281118 0.802253 9.854546 0.083818
1311874905.284103 0.802253 9.902441 -0.107765
1311874905.285116 0.802253 9.902441 -0.107765
1311874905.288592 0.802253 9.950337 -0.203557
1311874905.289587 0.802253 9.950337 -0.203557
1311874905.292857 0.754358 9.902441 -0.347244
1311874905.294018 0.754358 9.902441 -0.347244
1311874905.295113 0.754358 9.902441 -0.347244
1311874905.296516 0.754358 9.902441 -0.347244
1311874905.299738 0.802253 10.046129 -0.299348
1311874905.300834 0.802253 10.046129 -0.299348
1311874905.303991 0.754358 10.046129 -0.395140
1311874905.304961 0.754358 10.046129 -0.395140
1311874905.308609 0.802253 9.854546 -0.371192
1311874905.309588 0.802253 9.854546 -0.371192
1311874905.312851 0.838175 9.854546 -0.203557
1311874905.313842 0.838175 9.854546 -0.203557
1311874905.315115 0.838175 9.854546 -0.203557
1311874905.316103 0.838175 9.854546 -0.203557
1311874905.319742 0.993836 9.854546 -0.407114
1311874905.320866 0.993836 9.854546 -0.407114
1311874905.323978 0.993836 9.758754 -0.586723
1311874905.325096 0.993836 9.758754 -0.586723
1311874905.328608 0.993836 9.495328 -0.586723
1311874905.329777 0.993836 9.495328 -0.586723
1311874905.332877 0.993836 9.447432 -0.586723
1311874905.333835 0.993836 9.447432 -0.586723
1311874905.335099 0.993836 9.447432 -0.586723
1311874905.336095 0.993836 9.447432 -0.586723
1311874905.339773 1.089628 9.136110 -0.586723
1311874905.340709 1.089628 9.136110 -0.586723
1311874905.343992 1.185419 9.088214 -0.586723
1311874905.344984 1.185419 9.088214 -0.586723
1311874905.348100 1.185419 9.076240 -0.586723
1311874905.349213 1.185419 9.076240 -0.586723
1311874905.352868 1.185419 9.076240 -0.586723
1311874905.353740 1.185419 9.076240 -0.586723
1311874905.354957 1.185419 9.076240 -0.586723
1311874905.355946 1.185419 9.076240 -0.586723
1311874905.359610 0.993836 9.064266 -0.586723
1311874905.360605 0.993836 9.064266 -0.586723
1311874905.363867 0.993836 9.064266 -0.586723
1311874905.364838 0.993836 9.064266 -0.586723
1311874905.367971 1.161471 9.088214 -0.682514
1311874905.368966 1.161471 9.088214 -0.682514
1311874905.372595 1.185419 9.088214 -0.419088
1311874905.373699 1.185419 9.088214 -0.419088
1311874905.374847 1.185419 9.088214 -0.419088
1311874905.375858 1.185419 9.088214 -0.419088
1311874905.378984 1.185419 9.088214 -0.347244
1311874905.379967 1.185419 9.088214 -0.347244
1311874905.383628 1.089628 9.040318 -0.203557
1311874905.384724 1.089628 9.040318 -0.203557
1311874905.387856 1.089628 8.992423 -0.203557
1311874905.388836 1.089628 8.992423 -0.203557
1311874905.390097 1.089628 8.992423 -0.203557
1311874905.391100 1.089628 8.992423 -0.203557
1311874905.394737 1.173445 8.705048 -0.203557
1311874905.395739 1.173445 8.705048 -0.203557
1311874905.398984 1.173445 8.752944 -0.299348
1311874905.399967 1.173445 8.752944 -0.299348
1311874905.403601 1.089628 8.896631 -0.299348
1311874905.404734 1.089628 8.896631 -0.299348
1311874905.405720 1.089628 8.896631 -0.299348
1311874905.408964 0.993836 8.896631 -0.299348
1311874905.409972 0.993836 8.896631 -0.299348
1311874905.413594 1.173445 8.896631 -0.383166
1311874905.414600 1.173445 8.896631 -0.383166
1311874905.417866 1.173445 8.992423 -0.299348
1311874905.418839 1.173445 8.992423 -0.299348
1311874905.420113 1.173445 8.992423 -0.299348
1311874905.421089 1.173445 8.992423 -0.299348
1311874905.424707 1.173445 9.088214 -0.107765
1311874905.425703 1.173445 9.088214 -0.107765
1311874905.428997 1.089628 9.064266 -0.011974
1311874905.429971 1.089628 9.064266 -0.011974
1311874905.432972 0.993836 9.088214 -0.035922
1311874905.433965 0.993836 9.088214 -0.035922
1311874905.435081 0.993836 9.088214 -0.035922
1311874905.436200 0.993836 9.088214 -0.035922
1311874905.439763 0.993836 9.184006 0.083818
1311874905.440835 0.993836 9.184006 0.083818
1311874905.443995 1.089628 9.088214 0.011974
1311874905.444999 1.089628 9.088214 0.011974
1311874905.448114 1.089628 9.184006 0.011974
1311874905.449627 1.089628 9.184006 0.011974
1311874905.452861 0.993836 9.184006 -0.011974
1311874905.453837 0.993836 9.184006 -0.011974
1311874905.454972 0.993836 9.184006 -0.011974
1311874905.455985 0.993836 9.184006 -0.011974
1311874905.459643 0.802253 9.423484 -0.011974
1311874905.460623 0.802253 9.423484 -0.011974
1311874905.461606 0.802253 9.423484 -0.011974
1311874905.464845 0.802253 9.519276 -0.011974
1311874905.465969 0.802253 9.519276 -0.011974
1311874905.469157 0.802253 9.567171 0.179609
1311874905.470131 0.802253 9.567171 0.179609
1311874905.473629 0.802253 9.567171 0.083818
1311874905.474590 0.802253 9.567171 0.083818
1311874905.477898 0.802253 9.758754 0.083818
1311874905.478894 0.802253 9.758754 0.083818
1311874905.480100 0.802253 9.758754 0.083818
1311874905.481110 0.802253 9.758754 0.083818
1311874905.484731 0.802253 9.854546 0.179609
1311874905.485735 0.802253 9.854546 0.179609
1311874905.488959 0.838175 9.806650 0.179609
1311874905.489952 0.838175 9.806650 0.179609
1311874905.493287 0.802253 9.854546 0.179609
1311874905.494497 0.802253 9.854546 0.179609
1311874905.497735 0.802253 9.854546 0.083818
1311874905.498874 0.802253 9.854546 0.083818
1311874905.499964 0.802253 9.854546 0.083818
1311874905.501090 0.802253 9.854546 0.083818
1311874905.504597 0.838175 9.662963 -0.011974
1311874905.505774 0.838175 9.662963 -0.011974
1311874905.508836 0.802253 9.662963 0.011974
1311874905.509841 0.802253 9.662963 0.011974
1311874905.512975 0.886071 9.495328 -0.011974
1311874905.513963 0.886071 9.495328 -0.011974
1311874905.515248 0.886071 9.495328 -0.011974
1311874905.516600 0.886071 9.495328 -0.011974
1311874905.519745 0.790279 9.471380 0.179609
1311874905.520857 0.790279 9.471380 0.179609
1311874905.523975 0.706462 9.471380 0.179609
1311874905.525097 0.706462 9.471380 0.179609
1311874905.528606 0.802253 9.471380 0.083818
1311874905.529606 0.802253 9.471380 0.083818
1311874905.532852 0.802253 9.471380 0.179609
1311874905.533837 0.802253 9.471380 0.179609
1311874905.535101 0.802253 9.471380 0.179609
1311874905.536139 0.802253 9.471380 0.179609
1311874905.539756 0.802253 9.471380 0.383166
1311874905.540791 0.802253 9.471380 0.383166
1311874905.543834 0.838175 9.519276 0.466983
1311874905.544973 0.838175 9.519276 0.466983
1311874905.548101 0.802253 9.519276 0.371192
1311874905.549582 0.802253 9.519276 0.371192
1311874905.552860 0.778306 9.662963 0.754358
1311874905.553969 0.778306 9.662963 0.754358
1311874905.555088 0.778306 9.662963 0.754358
1311874905.556091 0.778306 9.662963 0.754358
1311874905.559721 0.814227 9.471380 0.658566
1311874905.560901 0.814227 9.471380 0.658566
1311874905.563981 0.886071 9.519276 0.754358
1311874905.564972 0.886071 9.519276 0.754358
1311874905.568214 0.886071 9.471380 0.658566
1311874905.569571 0.886071 9.471380 0.658566
1311874905.572861 0.886071 9.471380 0.754358
1311874905.573853 0.886071 9.471380 0.754358
1311874905.575091 0.886071 9.471380 0.754358
1311874905.576083 0.886071 9.471380 0.754358
1311874905.579751 0.838175 9.471380 0.562775
1311874905.580724 0.838175 9.471380 0.562775
1311874905.583985 0.802253 9.471380 0.562775
1311874905.584982 0.802253 9.471380 0.562775
1311874905.588073 0.802253 9.471380 0.562775
1311874905.589588 0.802253 9.471380 0.562775
1311874905.592894 0.802253 9.519276 0.359218
1311874905.593852 0.802253 9.519276 0.359218
1311874905.595100 0.802253 9.519276 0.359218
1311874905.596095 0.802253 9.519276 0.359218
1311874905.599591 0.838175 9.519276 0.371192
1311874905.600715 0.838175 9.519276 0.371192
1311874905.603840 0.886071 9.567171 0.359218
1311874905.604959 0.886071 9.567171 0.359218
1311874905.607838 0.802253 9.662963 0.371192
1311874905.608985 0.802253 9.662963 0.371192
1311874905.610591 0.802253 9.662963 0.371192
1311874905.613715 0.886071 9.495328 0.347244
1311874905.614736 0.886071 9.495328 0.347244
1311874905.617963 0.838175 9.495328 0.275400
1311874905.619013 0.838175 9.495328 0.275400
1311874905.620200 0.838175 9.495328 0.275400
1311874905.621592 0.838175 9.495328 0.275400
1311874905.624849 0.993836 9.471380 0.371192
1311874905.625841 0.993836 9.471380 0.371192
1311874905.628973 0.993836 9.471380 0.466983
1311874905.630147 0.993836 9.471380 0.466983
1311874905.633724 0.993836 9.471380 0.371192
1311874905.634716 0.993836 9.471380 0.371192
1311874905.637845 0.993836 9.471380 0.083818
1311874905.638954 0.993836 9.471380 0.083818
1311874905.640087 0.993836 9.471380 0.083818
1311874905.641602 0.993836 9.471380 0.083818
1311874905.644719 0.993836 9.471380 0.179609
1311874905.645842 0.993836 9.471380 0.179609
1311874905.648976 0.993836 9.483354 0.371192
1311874905.649965 0.993836 9.483354 0.371192
1311874905.653584 0.993836 9.471380 0.371192
1311874905.654594 0.993836 9.471380 0.371192
1311874905.657846 0.886071 9.471380 0.323296
1311874905.658846 0.886071 9.471380 0.323296
1311874905.660092 0.886071 9.471380 0.323296
1311874905.661240 0.886071 9.471380 0.323296
1311874905.664725 0.993836 9.471380 0.371192
1311874905.665712 0.993836 9.471380 0.371192
1311874905.669003 0.993836 9.447432 0.562775
1311874905.669972 0.993836 9.447432 0.562775
1311874905.673592 1.089628 9.471380 0.371192
1311874905.674579 1.089628 9.471380 0.371192
1311874905.677868 0.993836 9.279797 0.371192
1311874905.678864 0.993836 9.279797 0.371192
1311874905.680111 0.993836 9.279797 0.371192
1311874905.681234 0.993836 9.279797 0.371192
1311874905.684859 0.993836 9.112162 0.466983
1311874905.685729 0.993836 9.112162 0.466983
1311874905.688971 1.089628 9.076240 0.371192
1311874905.689946 1.089628 9.076240 0.371192
1311874905.693607 0.993836 9.064266 0.466983
1311874905.694590 0.993836 9.064266 0.466983
1311874905.695598 0.993836 9.064266 0.466983
1311874905.698987 0.993836 8.992423 0.419088
1311874905.699948 0.993836 8.992423 0.419088
1311874905.703591 0.802253 8.992423 0.742384
1311874905.704582 0.802253 8.992423 0.742384
1311874905.707851 0.886071 9.040318 0.419088
1311874905.708957 0.886071 9.040318 0.419088
1311874905.710224 0.886071 9.040318 0.419088
1311874905.711571 0.886071 9.040318 0.419088
1311874905.714844 0.886071 9.088214 0.706462
1311874905.715937 0.886071 9.088214 0.706462
1311874905.719157 0.838175 9.088214 0.658566
1311874905.720121 0.838175 9.088214 0.658566
1311874905.721232 0.838175 9.088214 0.658566
1311874905.724721 0.886071 9.279797 0.754358
1311874905.725700 0.886071 9.279797 0.754358
1311874905.728974 0.993836 9.375588 0.754358
1311874905.730025 0.993836 9.375588 0.754358
1311874905.733234 0.993836 9.375588 0.778306
1311874905.734217 0.993836 9.375588 0.778306
1311874905.737729 0.886071 9.375588 0.754358
1311874905.738704 0.886071 9.375588 0.754358
1311874905.739963 0.886071 9.375588 0.754358
1311874905.741085 0.886071 9.375588 0.754358
1311874905.743999 0.993836 9.375588 0.850149
1311874905.745106 0.993836 9.375588 0.850149
1311874905.748621 0.886071 9.471380 0.742384
1311874905.749719 0.886071 9.471380 0.742384
1311874905.752858 0.886071 9.459406 0.706462
1311874905.753841 0.886071 9.459406 0.706462
1311874905.755095 0.886071 9.459406 0.706462
1311874905.756092 0.886071 9.459406 0.706462
1311874905.759719 0.802253 9.471380 0.658566
1311874905.760721 0.802253 9.471380 0.658566
1311874905.763974 0.802253 9.471380 0.562775
1311874905.764984 0.802253 9.471380 0.562775
1311874905.768121 0.802253 9.519276 0.562775
1311874905.769588 0.802253 9.519276 0.562775
1311874905.772756 0.802253 9.471380 0.562775
1311874905.773872 0.802253 9.471380 0.562775
1311874905.774963 0.802253 9.471380 0.562775
1311874905.776078 0.802253 9.471380 0.562775
1311874905.779614 0.802253 9.459406 0.383166
1311874905.780844 0.802253 9.459406 0.383166
1311874905.784031 0.802253 9.279797 0.371192
1311874905.784983 0.802253 9.279797 0.371192
1311874905.788193 0.814227 9.279797 0.383166
1311874905.789563 0.814227 9.279797 0.383166
1311874905.792858 0.886071 9.279797 0.395140
1311874905.793844 0.886071 9.279797 0.395140
1311874905.795102 0.886071 9.279797 0.395140
1311874905.796091 0.886071 9.279797 0.395140
1311874905.799720 0.838175 9.279797 0.371192
1311874905.800703 0.838175 9.279797 0.371192
1311874905.803957 0.886071 9.423484 0.371192
1311874905.804954 0.886071 9.423484 0.371192
1311874905.808208 0.802253 9.471380 0.466983
1311874905.809592 0.802253 9.471380 0.466983
1311874905.812922 0.993836 9.279797 0.371192
1311874905.813878 0.993836 9.279797 0.371192
1311874905.815125 0.993836 9.279797 0.371192
1311874905.816092 0.993836 9.279797 0.371192
1311874905.819566 0.886071 9.279797 0.371192
1311874905.820706 0.886071 9.279797 0.371192
1311874905.823845 0.886071 9.375588 0.275400
1311874905.824964 0.886071 9.375588 0.275400
1311874905.828593 0.993836 9.423484 0.371192
1311874905.829728 0.993836 9.423484 0.371192
1311874905.830761 0.993836 9.423484 0.371192
1311874905.834008 0.886071 9.447432 0.466983
1311874905.834971 0.886071 9.447432 0.466983
1311874905.838582 1.137524 9.279797 0.419088
1311874905.839574 1.137524 9.279797 0.419088
1311874905.840578 1.137524 9.279797 0.419088
1311874905.843995 0.993836 9.184006 0.419088
1311874905.844950 0.993836 9.184006 0.419088
1311874905.848281 0.993836 9.279797 0.323296
1311874905.849631 0.993836 9.279797 0.323296
1311874905.852850 1.137524 9.184006 0.179609
1311874905.853860 1.137524 9.184006 0.179609
1311874905.855080 1.137524 9.184006 0.179609
1311874905.856092 1.137524 9.184006 0.179609
1311874905.859601 1.161471 9.184006 0.347244
1311874905.860729 1.161471 9.184006 0.347244
1311874905.863879 0.886071 9.136110 0.179609
1311874905.864974 0.886071 9.136110 0.179609
1311874905.867847 0.886071 9.184006 -0.011974
1311874905.868946 0.886071 9.184006 -0.011974
1311874905.870236 0.886071 9.184006 -0.011974
1311874905.871221 0.886071 9.184006 -0.011974
1311874905.874729 0.802253 9.375588 0.347244
1311874905.875824 0.802253 9.375588 0.347244
1311874905.878960 0.886071 9.471380 0.083818
1311874905.880104 0.886071 9.471380 0.083818
1311874905.883574 0.790279 9.662963 0.371192
1311874905.884730 0.790279 9.662963 0.371192
1311874905.887872 0.802253 9.662963 0.323296
1311874905.888994 0.802253 9.662963 0.323296
1311874905.890263 0.802253 9.662963 0.323296
1311874905.891239 0.802253 9.662963 0.323296
1311874905.894711 0.778306 9.662963 0.562775
1311874905.895710 0.778306 9.662963 0.562775
1311874905.898963 0.802253 9.806650 0.754358
1311874905.899939 0.802253 9.806650 0.754358
1311874905.903582 0.838175 9.662963 0.850149
1311874905.904712 0.838175 9.662963 0.850149
1311874905.907858 0.790279 9.567171 0.754358
1311874905.908850 0.790279 9.567171 0.754358
1311874905.910071 0.790279 9.567171 0.754358
1311874905.911086 0.790279 9.567171 0.754358
1311874905.914715 0.802253 9.662963 0.945941
1311874905.915715 0.802253 9.662963 0.945941
1311874905.918981 0.802253 9.662963 0.730410
1311874905.919981 0.802253 9.662963 0.730410
1311874905.923589 0.802253 9.662963 0.850149
1311874905.924581 0.802253 9.662963 0.850149
1311874905.925586 0.802253 9.662963 0.850149
1311874905.928971 0.802253 9.662963 0.945941
1311874905.929975 0.802253 9.662963 0.945941
1311874905.933594 0.754358 9.758754 0.802253
1311874905.934578 0.754358 9.758754 0.802253
1311874905.937858 0.790279 9.662963 0.754358
1311874905.938829 0.790279 9.662963 0.754358
1311874905.940076 0.790279 9.662963 0.754358
1311874905.941080 0.790279 9.662963 0.754358
1311874905.944728 0.790279 9.662963 0.562775
1311874905.945728 0.790279 9.662963 0.562775
1311874905.948961 0.802253 9.758754 0.562775
1311874905.949975 0.802253 9.758754 0.562775
1311874905.952963 0.790279 9.758754 0.371192
1311874905.953963 0.790279 9.758754 0.371192
1311874905.957590 0.802253 9.662963 0.371192
1311874905.958580 0.802253 9.662963 0.371192
1311874905.959580 0.802253 9.662963 0.371192
1311874905.962859 0.802253 9.662963 0.371192
1311874905.963970 0.802253 9.662963 0.371192
1311874905.965226 0.802253 9.662963 0.371192
1311874905.966594 0.802253 9.662963 0.371192
1311874905.969591 0.802253 9.662963 0.466983
1311874905.972722 0.802253 9.662963 0.371192
1311874905.973724 0.802253 9.662963 0.371192
1311874905.974954 0.802253 9.662963 0.371192
1311874905.975949 0.802253 9.662963 0.371192
1311874905.978971 0.886071 9.662963 0.371192
1311874905.979956 0.886071 9.662963 0.371192
1311874905.983590 0.838175 9.662963 0.347244
1311874905.984728 0.838175 9.662963 0.347244
1311874905.985856 0.838175 9.662963 0.347244
1311874905.988968 0.802253 9.662963 0.562775
1311874905.990006 0.802253 9.662963 0.562775
1311874905.993595 0.802253 9.662963 0.371192
1311874905.994596 0.802253 9.662963 0.371192
1311874905.997861 0.886071 9.567171 0.742384
1311874905.998823 0.886071 9.567171 0.742384
1311874906.000070 0.886071 9.567171 0.742384
1311874906.001279 0.886071 9.567171 0.742384
1311874906.004706 0.802253 9.662963 0.850149
1311874906.005824 0.802253 9.662963 0.850149
1311874906.008973 0.886071 9.471380 0.945941
1311874906.010076 0.886071 9.471380 0.945941
1311874906.013601 0.886071 9.495328 0.754358
1311874906.014572 0.886071 9.495328 0.754358
1311874906.017829 0.886071 9.567171 0.778306
1311874906.018828 0.886071 9.567171 0.778306
1311874906.020069 0.886071 9.567171 0.778306
1311874906.021102 0.886071 9.567171 0.778306
1311874906.024712 0.802253 9.567171 0.945941
1311874906.025707 0.802253 9.567171 0.945941
1311874906.028966 0.814227 9.567171 0.754358
1311874906.029962 0.814227 9.567171 0.754358
1311874906.033591 0.886071 9.471380 0.730410
1311874906.034569 0.886071 9.471380 0.730410
1311874906.037866 0.814227 9.567171 0.562775
1311874906.038827 0.814227 9.567171 0.562775
1311874906.040074 0.814227 9.567171 0.562775
1311874906.041093 0.814227 9.567171 0.562775
1311874906.044719 0.993836 9.662963 0.730410
1311874906.045710 0.993836 9.662963 0.730410
1311874906.048967 0.802253 9.758754 0.562775
1311874906.049972 0.802253 9.758754 0.562775
1311874906.053583 0.802253 9.866520 0.371192
1311874906.054698 0.802253 9.866520 0.371192
1311874906.055688 0.802253 9.866520 0.371192
1311874906.058833 0.802253 9.854546 0.371192
1311874906.059959 0.802253 9.854546 0.371192
1311874906.063095 0.802253 9.950337 0.371192
1311874906.064091 0.802253 9.950337 0.371192
1311874906.067736 0.598697 10.046129 0.275400
1311874906.068728 0.598697 10.046129 0.275400
1311874906.069936 0.598697 10.046129 0.275400
1311874906.070984 0.598697 10.046129 0.275400
1311874906.073968 0.778306 9.950337 0.035922
1311874906.074956 0.778306 9.950337 0.035922
1311874906.078607 0.502905 10.046129 0.371192
1311874906.079590 0.502905 10.046129 0.371192
1311874906.082870 0.598697 10.046129 0.371192
1311874906.083807 0.598697 10.046129 0.371192
1311874906.085111 0.598697 10.046129 0.371192
1311874906.086111 0.598697 10.046129 0.371192
1311874906.089600 0.598697 10.141920 0.371192
1311874906.090708 0.598697 10.141920 0.371192
1311874906.093977 0.802253 10.046129 0.466983
1311874906.095071 0.802253 10.046129 0.466983
1311874906.098002 0.802253 10.141920 0.562775
1311874906.098981 0.802253 10.141920 0.562775
1311874906.102574 0.802253 10.046129 0.419088
1311874906.103559 0.802253 10.046129 0.419088
1311874906.104854 0.802253 10.046129 0.419088
1311874906.105856 0.802253 10.046129 0.419088
1311874906.109086 0.886071 10.141920 0.658566
1311874906.110160 0.886071 10.141920 0.658566
1311874906.113716 0.993836 10.046129 0.754358
1311874906.114715 0.993836 10.046129 0.754358
1311874906.117841 0.802253 10.046129 0.658566
1311874906.118806 0.802253 10.046129 0.658566
1311874906.120079 0.802253 10.046129 0.658566
1311874906.121182 0.802253 10.046129 0.658566
1311874906.124689 0.886071 9.902441 0.562775
1311874906.125694 0.886071 9.902441 0.562775
1311874906.128973 0.993836 9.854546 0.562775
1311874906.129953 0.993836 9.854546 0.562775
1311874906.133592 0.886071 9.854546 0.323296
1311874906.134595 0.886071 9.854546 0.323296
1311874906.135583 0.886071 9.854546 0.323296
1311874906.138823 0.886071 9.758754 0.371192
1311874906.139971 0.886071 9.758754 0.371192
1311874906.142856 0.993836 9.519276 0.371192
1311874906.144814 0.993836 9.519276 0.371192
1311874906.147205 0.886071 9.662963 0.359218
1311874906.148212 0.886071 9.662963 0.359218
1311874906.149828 0.886071 9.662963 0.359218
1311874906.150862 0.886071 9.662963 0.359218
1311874906.154068 0.993836 9.471380 0.179609
1311874906.155092 0.993836 9.471380 0.179609
1311874906.158580 1.089628 9.471380 0.323296
1311874906.159742 1.089628 9.471380 0.323296
1311874906.162856 1.173445 9.471380 0.275400
1311874906.164010 1.173445 9.471380 0.275400
1311874906.165475 1.173445 9.471380 0.275400
1311874906.166567 1.173445 9.471380 0.275400
1311874906.169866 1.137524 9.375588 0.371192
1311874906.170828 1.137524 9.375588 0.371192
1311874906.174113 0.993836 9.279797 0.371192
1311874906.175117 0.993836 9.279797 0.371192
1311874906.178715 1.089628 9.279797 0.562775
1311874906.179844 1.089628 9.279797 0.562775
1311874906.182973 0.993836 9.279797 0.562775
1311874906.183972 0.993836 9.279797 0.562775
1311874906.185592 0.993836 9.279797 0.562775
1311874906.188697 1.089628 9.279797 0.466983
1311874906.189717 1.089628 9.279797 0.466983
1311874906.193010 1.137524 9.279797 0.562775
1311874906.193975 1.137524 9.279797 0.562775
1311874906.197633 0.993836 9.375588 0.658566
1311874906.198573 0.993836 9.375588 0.658566
1311874906.199828 0.993836 9.375588 0.658566
1311874906.200816 0.993836 9.375588 0.658566
1311874906.203946 0.993836 9.471380 0.706462
1311874906.205108 0.993836 9.471380 0.706462
1311874906.208629 1.161471 9.471380 0.754358
1311874906.209566 1.161471 9.471380 0.754358
1311874906.212853 1.089628 9.471380 0.754358
1311874906.213838 1.089628 9.471380 0.754358
1311874906.215074 1.089628 9.471380 0.754358
1311874906.216074 1.089628 9.471380 0.754358
1311874906.219700 0.886071 9.854546 0.802253
1311874906.220703 0.886071 9.854546 0.802253
1311874906.223838 0.993836 9.854546 0.802253
1311874906.224958 0.993836 9.854546 0.802253
1311874906.227945 0.993836 9.854546 0.658566
1311874906.228956 0.993836 9.854546 0.658566
1311874906.232203 0.886071 9.854546 0.754358
1311874906.233563 0.886071 9.854546 0.754358
1311874906.234810 0.886071 9.854546 0.754358
1311874906.235814 0.886071 9.854546 0.754358
1311874906.238945 0.993836 9.758754 0.562775
1311874906.240108 0.993836 9.758754 0.562775
1311874906.243594 0.993836 9.854546 0.275400
1311874906.244750 0.993836 9.854546 0.275400
1311874906.247846 0.814227 9.854546 0.323296
1311874906.248957 0.814227 9.854546 0.323296
1311874906.250204 0.814227 9.854546 0.323296
1311874906.251575 0.814227 9.854546 0.323296
1311874906.254584 0.802253 9.758754 -0.011974
1311874906.255588 0.802253 9.758754 -0.011974
1311874906.258820 0.838175 9.758754 0.179609
1311874906.259849 0.838175 9.758754 0.179609
1311874906.262891 0.814227 9.842572 -0.011974
1311874906.263837 0.814227 9.842572 -0.011974
1311874906.265222 0.814227 9.842572 -0.011974
1311874906.266223 0.814227 9.842572 -0.011974
1311874906.269748 0.993836 9.806650 0.011974
1311874906.270709 0.993836 9.806650 0.011974
1311874906.274110 0.802253 9.854546 0.179609
1311874906.275119 0.802253 9.854546 0.179609
1311874906.276115 0.802253 9.854546 0.179609
1311874906.279564 0.838175 9.854546 0.035922
1311874906.280697 0.838175 9.854546 0.035922
1311874906.283825 0.993836 9.854546 0.179609
1311874906.284953 0.993836 9.854546 0.179609
1311874906.287810 0.886071 9.854546 0.179609
1311874906.288934 0.886071 9.854546 0.179609
1311874906.290464 0.886071 9.854546 0.179609
1311874906.291606 0.886071 9.854546 0.179609
1311874906.294876 1.089628 9.854546 0.179609
1311874906.295820 1.089628 9.854546 0.179609
1311874906.298963 1.089628 9.758754 0.179609
1311874906.299949 1.089628 9.758754 0.179609
1311874906.303570 1.173445 9.830598 0.179609
1311874906.304563 1.173445 9.830598 0.179609
1311874906.305571 1.173445 9.830598 0.179609
1311874906.308998 1.185419 9.662963 0.011974
1311874906.310026 1.185419 9.662963 0.011974
1311874906.312959 1.089628 9.758754 0.371192
1311874906.314008 1.089628 9.758754 0.371192
1311874906.317635 0.993836 9.567171 0.083818
1311874906.318661 0.993836 9.567171 0.083818
1311874906.319889 0.993836 9.567171 0.083818
1311874906.320864 0.993836 9.567171 0.083818
1311874906.323962 1.173445 9.662963 0.179609
1311874906.325051 1.173445 9.662963 0.179609
1311874906.328588 1.173445 9.471380 0.083818
1311874906.329597 1.173445 9.471380 0.083818
1311874906.332822 1.185419 9.375588 0.035922
1311874906.333806 1.185419 9.375588 0.035922
1311874906.335070 1.185419 9.375588 0.035922
1311874906.336073 1.185419 9.375588 0.035922
1311874906.339615 1.185419 9.471380 -0.035922
1311874906.340712 1.185419 9.471380 -0.035922
1311874906.343820 1.221341 9.279797 0.179609
1311874906.344958 1.221341 9.279797 0.179609
1311874906.347959 1.365028 9.279797 0.083818
1311874906.348980 1.365028 9.279797 0.083818
1311874906.350564 1.365028 9.279797 0.083818
1311874906.353095 1.365028 9.184006 0.179609
1311874906.354094 1.365028 9.184006 0.179609
1311874906.357711 1.365028 9.088214 0.275400
1311874906.358675 1.365028 9.088214 0.275400
1311874906.359963 1.365028 9.088214 0.275400
1311874906.360963 1.365028 9.088214 0.275400
1311874906.363962 1.365028 9.136110 0.035922
1311874906.364981 1.365028 9.136110 0.035922
1311874906.368595 1.365028 9.088214 0.083818
1311874906.369682 1.365028 9.088214 0.083818
1311874906.370728 1.365028 9.088214 0.083818
1311874906.373858 1.221341 9.184006 0.011974
1311874906.374949 1.221341 9.184006 0.011974
1311874906.377948 1.365028 9.088214 0.179609
1311874906.378942 1.365028 9.088214 0.179609
1311874906.382605 1.185419 9.040318 0.083818
1311874906.383591 1.185419 9.040318 0.083818
1311874906.384581 1.185419 9.040318 0.083818
1311874906.387963 1.185419 9.088214 0.275400
1311874906.388960 1.185419 9.088214 0.275400
1311874906.392610 1.269237 9.184006 0.371192
1311874906.393576 1.269237 9.184006 0.371192
1311874906.394833 1.269237 9.184006 0.371192
1311874906.395811 1.269237 9.184006 0.371192
1311874906.398979 1.185419 9.279797 0.706462
1311874906.400083 1.185419 9.279797 0.706462
1311874906.403691 1.269237 9.279797 0.466983
1311874906.404707 1.269237 9.279797 0.466983
1311874906.408049 1.365028 9.471380 0.562775
1311874906.409013 1.365028 9.471380 0.562775
1311874906.412104 1.365028 9.519276 0.562775
1311874906.413616 1.365028 9.519276 0.562775
1311874906.414719 1.365028 9.519276 0.562775
1311874906.415862 1.365028 9.519276 0.562775
1311874906.418946 1.365028 9.471380 0.466983
1311874906.419972 1.365028 9.471380 0.466983
1311874906.423583 1.269237 9.567171 0.371192
1311874906.424577 1.269237 9.567171 0.371192
1311874906.427829 1.185419 9.567171 0.371192
1311874906.428823 1.185419 9.567171 0.371192
1311874906.430122 1.185419 9.567171 0.371192
1311874906.431729 1.185419 9.567171 0.371192
1311874906.434575 1.365028 9.471380 -0.011974
1311874906.435687 1.365028 9.471380 -0.011974
1311874906.438816 1.365028 9.471380 -0.011974
1311874906.439803 1.365028 9.471380 -0.011974
1311874906.443084 1.269237 9.471380 -0.203557
1311874906.444098 1.269237 9.471380 -0.203557
1311874906.445074 1.269237 9.471380 -0.203557
1311874906.448584 1.365028 9.459406 -0.023948
1311874906.449765 1.365028 9.459406 -0.023948
1311874906.452843 1.365028 9.471380 -0.023948
1311874906.453824 1.365028 9.471380 -0.023948
1311874906.455092 1.365028 9.471380 -0.023948
1311874906.456084 1.365028 9.471380 -0.023948
1311874906.459589 1.472794 9.471380 -0.059870
1311874906.460778 1.472794 9.471380 -0.059870
1311874906.463835 1.472794 9.662963 -0.203557
1311874906.465001 1.472794 9.662963 -0.203557
1311874906.467843 1.269237 9.758754 -0.011974
1311874906.468930 1.269237 9.758754 -0.011974
1311874906.470232 1.269237 9.758754 -0.011974
1311874906.471216 1.269237 9.758754 -0.011974
1311874906.474774 1.556611 9.806650 0.179609
1311874906.475834 1.556611 9.806650 0.179609
1311874906.478987 1.472794 9.758754 0.083818
1311874906.480114 1.472794 9.758754 0.083818
1311874906.483562 1.556611 9.950337 0.383166
1311874906.484697 1.556611 9.950337 0.383166
1311874906.487839 1.544637 9.854546 0.359218
1311874906.488799 1.544637 9.854546 0.359218
1311874906.490083 1.544637 9.854546 0.359218
1311874906.491106 1.544637 9.854546 0.359218
1311874906.494736 1.556611 9.854546 0.706462
1311874906.495708 1.556611 9.854546 0.706462
1311874906.498816 1.604507 9.854546 0.706462
1311874906.499940 1.604507 9.854546 0.706462
1311874906.503571 1.556611 9.662963 0.371192
1311874906.504697 1.556611 9.662963 0.371192
1311874906.505709 1.556611 9.662963 0.371192
1311874906.508988 1.520689 9.830598 0.359218
1311874906.509973 1.520689 9.830598 0.359218
1311874906.513222 1.556611 9.662963 0.323296
1311874906.514229 1.556611 9.662963 0.323296
1311874906.517706 1.472794 9.758754 0.275400
1311874906.518743 1.472794 9.758754 0.275400
1311874906.519945 1.472794 9.758754 0.275400
1311874906.521088 1.472794 9.758754 0.275400
1311874906.523955 1.556611 9.806650 0.179609
1311874906.525076 1.556611 9.806650 0.179609
1311874906.528582 1.556611 9.830598 0.371192
1311874906.529746 1.556611 9.830598 0.371192
1311874906.532852 1.652403 9.866520 0.179609
1311874906.533946 1.652403 9.866520 0.179609
1311874906.535109 1.652403 9.866520 0.179609
1311874906.536060 1.652403 9.866520 0.179609
1311874906.539711 1.556611 9.950337 0.011974
1311874906.540703 1.556611 9.950337 0.011974
1311874906.543853 1.652403 9.950337 -0.011974
1311874906.544932 1.652403 9.950337 -0.011974
1311874906.547985 1.556611 9.878494 -0.347244
1311874906.548946 1.556611 9.878494 -0.347244
1311874906.552572 1.652403 10.046129 -0.107765
1311874906.553563 1.652403 10.046129 -0.107765
1311874906.554857 1.652403 10.046129 -0.107765
1311874906.555800 1.652403 10.046129 -0.107765
1311874906.558984 1.556611 10.046129 -0.299348
1311874906.560117 1.556611 10.046129 -0.299348
1311874906.563605 1.568585 10.046129 -0.347244
1311874906.564711 1.568585 10.046129 -0.347244
1311874906.567824 1.556611 9.902441 -0.371192
1311874906.568805 1.556611 9.902441 -0.371192
1311874906.570057 1.556611 9.902441 -0.371192
1311874906.571065 1.556611 9.902441 -0.371192
1311874906.574704 1.556611 9.950337 -0.383166
1311874906.575683 1.556611 9.950337 -0.383166
1311874906.578956 1.520689 9.854546 -0.203557
1311874906.579977 1.520689 9.854546 -0.203557
1311874906.583636 1.269237 9.866520 -0.203557
1311874906.584839 1.269237 9.866520 -0.203557
1311874906.585760 1.269237 9.866520 -0.203557
1311874906.588929 1.544637 9.854546 -0.011974
1311874906.589966 1.544637 9.854546 -0.011974
1311874906.592952 1.556611 9.854546 0.179609
1311874906.594051 1.556611 9.854546 0.179609
1311874906.595482 1.556611 9.854546 0.179609
1311874906.597034 1.556611 9.854546 0.179609
1311874906.599834 1.556611 9.854546 0.371192
1311874906.600809 1.556611 9.854546 0.371192
1311874906.603949 1.365028 9.758754 0.562775
1311874906.605091 1.365028 9.758754 0.562775
1311874906.608616 1.269237 9.854546 0.658566
1311874906.609574 1.269237 9.854546 0.658566
1311874906.612842 1.185419 9.830598 0.658566
1311874906.613812 1.185419 9.830598 0.658566
1311874906.615090 1.185419 9.830598 0.658566
1311874906.616092 1.185419 9.830598 0.658566
1311874906.619842 1.221341 9.842572 1.089628
1311874906.620820 1.221341 9.842572 1.089628
1311874906.623958 1.269237 9.854546 1.329106
1311874906.625072 1.269237 9.854546 1.329106
1311874906.628698 1.221341 9.854546 1.137524
1311874906.629701 1.221341 9.854546 1.137524
1311874906.632951 1.197393 9.854546 1.472794
1311874906.633949 1.197393 9.854546 1.472794
1311874906.637607 1.221341 9.854546 1.520689
1311874906.638558 1.221341 9.854546 1.520689
1311874906.639802 1.221341 9.854546 1.520689
1311874906.640817 1.221341 9.854546 1.520689
1311874906.644757 1.197393 9.854546 1.424898
1311874906.647583 1.221341 9.758754 1.520689
1311874906.648706 1.221341 9.758754 1.520689
1311874906.649706 1.221341 9.758754 1.520689
1311874906.652939 1.269237 9.662963 1.712272
1311874906.653933 1.269237 9.662963 1.712272
1311874906.657568 1.221341 9.758754 1.424898
1311874906.658563 1.221341 9.758754 1.424898
1311874906.659866 1.221341 9.758754 1.424898
1311874906.660948 1.221341 9.758754 1.424898
1311874906.663969 1.365028 9.662963 1.532663
1311874906.665071 1.365028 9.662963 1.532663
1311874906.668572 1.269237 9.830598 1.520689
1311874906.669563 1.269237 9.830598 1.520689
1311874906.672853 1.365028 9.806650 1.568585
1311874906.673811 1.365028 9.806650 1.568585
1311874906.675116 1.365028 9.806650 1.568585
1311874906.676126 1.365028 9.806650 1.568585
1311874906.679724 1.365028 9.854546 1.161471
1311874906.680862 1.365028 9.854546 1.161471
1311874906.683954 1.365028 9.854546 1.161471
1311874906.685066 1.365028 9.854546 1.161471
1311874906.688569 1.221341 9.854546 1.137524
1311874906.689683 1.221341 9.854546 1.137524
1311874906.692886 1.365028 9.758754 1.041732
1311874906.693823 1.365028 9.758754 1.041732
1311874906.695062 1.365028 9.758754 1.041732
1311874906.696054 1.365028 9.758754 1.041732
1311874906.699685 1.221341 9.662963 1.137524
1311874906.700721 1.221341 9.662963 1.137524
1311874906.703844 1.269237 9.662963 1.137524
1311874906.704990 1.269237 9.662963 1.137524
1311874906.708569 1.185419 9.495328 0.802253
1311874906.709556 1.185419 9.495328 0.802253
1311874906.712839 1.197393 9.471380 1.041732
1311874906.713935 1.197393 9.471380 1.041732
1311874906.715093 1.197393 9.471380 1.041732
1311874906.716213 1.197393 9.471380 1.041732
1311874906.719691 1.197393 9.375588 0.945941
1311874906.720821 1.197393 9.375588 0.945941
1311874906.723952 1.185419 9.423484 1.137524
1311874906.724948 1.185419 9.423484 1.137524
1311874906.728588 1.269237 9.279797 1.233315
1311874906.729579 1.269237 9.279797 1.233315
1311874906.732821 1.197393 9.279797 1.137524
1311874906.733810 1.197393 9.279797 1.137524
1311874906.735078 1.197393 9.279797 1.137524
1311874906.736058 1.197393 9.279797 1.137524
1311874906.739708 1.365028 9.375588 1.329106
1311874906.740716 1.365028 9.375588 1.329106
1311874906.743947 1.221341 9.471380 1.712272
1311874906.744941 1.221341 9.471380 1.712272
1311874906.748570 1.221341 9.471380 1.808064
1311874906.749596 1.221341 9.471380 1.808064
1311874906.752833 1.365028 9.471380 1.712272
1311874906.753838 1.365028 9.471380 1.712272
1311874906.755068 1.365028 9.471380 1.712272
1311874906.756073 1.365028 9.471380 1.712272
1311874906.759700 1.185419 9.375588 1.891881
1311874906.760753 1.185419 9.375588 1.891881
1311874906.764014 1.185419 9.423484 1.951751
1311874906.764948 1.185419 9.423484 1.951751
1311874906.768198 1.137524 9.279797 1.879907
1311874906.769560 1.137524 9.279797 1.879907
1311874906.772810 1.089628 9.375588 1.903855
1311874906.773819 1.089628 9.375588 1.903855
1311874906.775097 1.089628 9.375588 1.903855
1311874906.776066 1.089628 9.375588 1.903855
1311874906.779580 1.089628 9.471380 1.855959
1311874906.780775 1.089628 9.471380 1.855959
1311874906.783915 1.173445 9.447432 1.855959
1311874906.784959 1.173445 9.447432 1.855959
1311874906.787959 0.993836 9.423484 1.712272
1311874906.788939 0.993836 9.423484 1.712272
1311874906.792552 0.993836 9.495328 1.903855
1311874906.793703 0.993836 9.495328 1.903855
1311874906.794709 0.993836 9.495328 1.903855
1311874906.798023 0.993836 9.519276 1.712272
1311874906.798943 0.993836 9.519276 1.712272
1311874906.802564 1.137524 9.567171 1.903855
1311874906.803669 1.137524 9.567171 1.903855
1311874906.804671 1.137524 9.567171 1.903855
1311874906.807814 1.185419 9.471380 1.903855
1311874906.808969 1.185419 9.471380 1.903855
1311874906.810585 1.185419 9.471380 1.903855
1311874906.813694 1.185419 9.447432 1.808064
1311874906.814688 1.185419 9.447432 1.808064
1311874906.817941 1.185419 9.471380 1.879907
1311874906.818931 1.185419 9.471380 1.879907
1311874906.822579 1.161471 9.375588 1.903855
1311874906.823577 1.161471 9.375588 1.903855
1311874906.824569 1.161471 9.375588 1.903855
1311874906.827947 0.993836 9.375588 1.855959
1311874906.828952 0.993836 9.375588 1.855959
1311874906.832588 0.993836 9.471380 1.616481
1311874906.833563 0.993836 9.471380 1.616481
1311874906.834815 0.993836 9.471380 1.616481
1311874906.835797 0.993836 9.471380 1.616481
1311874906.838934 0.993836 9.279797 1.616481
1311874906.840056 0.993836 9.279797 1.616481
1311874906.843622 0.886071 9.184006 1.903855
1311874906.844685 0.886071 9.184006 1.903855
1311874906.847815 0.886071 9.184006 1.808064
1311874906.848936 0.886071 9.184006 1.808064
1311874906.850519 0.886071 9.184006 1.808064
1311874906.851635 0.886071 9.184006 1.808064
1311874906.854827 0.993836 9.279797 2.191229
1311874906.855823 0.993836 9.279797 2.191229
1311874906.858959 1.089628 9.279797 2.239125
1311874906.860022 1.089628 9.279797 2.239125
1311874906.863616 1.137524 9.279797 2.287021
1311874906.864565 1.137524 9.279797 2.287021
1311874906.867828 1.185419 9.184006 2.287021
1311874906.868812 1.185419 9.184006 2.287021
1311874906.870068 1.185419 9.184006 2.287021
1311874906.871056 1.185419 9.184006 2.287021
1311874906.874700 1.161471 9.184006 2.574395
1311874906.875731 1.161471 9.184006 2.574395
1311874906.879000 1.137524 9.112162 2.670187
1311874906.879939 1.137524 9.112162 2.670187
1311874906.883573 1.173445 9.088214 2.574395
1311874906.884567 1.173445 9.088214 2.574395
1311874906.887820 1.089628 9.136110 2.574395
1311874906.888813 1.089628 9.136110 2.574395
1311874906.890091 1.089628 9.136110 2.574395
1311874906.891049 1.089628 9.136110 2.574395
1311874906.894708 0.993836 9.184006 2.694135
1311874906.895700 0.993836 9.184006 2.694135
1311874906.898839 1.173445 9.279797 2.765978
1311874906.899945 1.173445 9.279797 2.765978
1311874906.903199 0.886071 9.375588 2.957561
1311874906.904181 0.886071 9.375588 2.957561
1311874906.907700 0.993836 9.471380 2.957561
1311874906.908837 0.993836 9.471380 2.957561
1311874906.909941 0.993836 9.471380 2.957561
1311874906.910985 0.993836 9.471380 2.957561
1311874906.914119 1.185419 9.459406 2.718082
1311874906.915063 1.185419 9.459406 2.718082
1311874906.918677 1.269237 9.447432 2.670187
1311874906.919684 1.269237 9.447432 2.670187
1311874906.922920 1.185419 9.447432 2.478604
1311874906.923948 1.185419 9.447432 2.478604
1311874906.927546 1.197393 9.471380 2.287021
1311874906.928563 1.197393 9.471380 2.287021
1311874906.929816 1.197393 9.471380 2.287021
1311874906.930864 1.197393 9.471380 2.287021
1311874906.934075 1.185419 9.375588 1.903855
1311874906.935088 1.185419 9.375588 1.903855
1311874906.938680 1.137524 9.279797 1.855959
1311874906.939677 1.137524 9.279797 1.855959
1311874906.942851 1.173445 9.184006 1.903855
1311874906.943939 1.173445 9.184006 1.903855
1311874906.947573 1.137524 9.040318 1.520689
1311874906.948589 1.137524 9.040318 1.520689
1311874906.949695 1.137524 9.040318 1.520689
1311874906.952941 1.185419 9.088214 1.520689
1311874906.954028 1.185419 9.088214 1.520689
1311874906.955467 1.185419 9.088214 1.520689
1311874906.956556 1.185419 9.088214 1.520689
1311874906.959897 1.185419 8.896631 1.616481
1311874906.960824 1.185419 8.896631 1.616481
1311874906.964064 1.221341 8.896631 1.879907
1311874906.965071 1.221341 8.896631 1.879907
1311874906.968728 1.173445 8.800840 2.095438
1311874906.969669 1.173445 8.800840 2.095438
1311874906.972930 1.269237 8.728996 2.263073
1311874906.973929 1.269237 8.728996 2.263073
1311874906.977569 1.365028 8.896631 2.263073
1311874906.978596 1.365028 8.896631 2.263073
1311874906.979839 1.365028 8.896631 2.263073
1311874906.980958 1.365028 8.896631 2.263073
1311874906.983962 1.221341 8.705048 2.287021
1311874906.985085 1.221341 8.705048 2.287021
1311874906.988709 1.365028 8.705048 2.670187
1311874906.989715 1.365028 8.705048 2.670187
1311874906.992949 1.365028 8.717022 2.670187
1311874906.993941 1.365028 8.717022 2.670187
1311874906.995446 1.365028 8.717022 2.670187
1311874906.998761 1.365028 8.705048 2.861770
1311874906.999733 1.365028 8.705048 2.861770
1311874907.002824 1.365028 8.717022 2.861770
1311874907.003942 1.365028 8.717022 2.861770
1311874907.005556 1.365028 8.717022 2.861770
1311874907.008705 1.269237 8.800840 3.077300
1311874907.009871 1.269237 8.800840 3.077300
1311874907.012944 1.365028 8.896631 3.053353
1311874907.013981 1.365028 8.896631 3.053353
1311874907.015549 1.365028 8.896631 3.053353
1311874907.018675 1.185419 8.992423 3.053353
1311874907.019684 1.185419 8.992423 3.053353
1311874907.022934 1.269237 8.896631 2.861770
1311874907.023957 1.269237 8.896631 2.861770
1311874907.027570 1.185419 9.088214 2.957561
1311874907.028566 1.185419 9.088214 2.957561
1311874907.029571 1.185419 9.088214 2.957561
1311874907.033249 1.173445 9.088214 2.861770
1311874907.034567 1.173445 9.088214 2.861770
1311874907.037689 1.185419 9.184006 3.053353
1311874907.038678 1.185419 9.184006 3.053353
1311874907.039951 1.185419 9.184006 3.053353
1311874907.040946 1.185419 9.184006 3.053353
1311874907.044107 1.173445 9.112162 3.244935
1311874907.045062 1.173445 9.112162 3.244935
1311874907.048571 1.173445 9.279797 3.436518
1311874907.049694 1.173445 9.279797 3.436518
1311874907.052832 1.137524 9.279797 3.436518
1311874907.053833 1.137524 9.279797 3.436518
1311874907.055056 1.137524 9.279797 3.436518
1311874907.056067 1.137524 9.279797 3.436518
1311874907.059692 1.185419 9.040318 3.149144
1311874907.060692 1.185419 9.040318 3.149144
1311874907.063842 1.185419 8.992423 3.149144
1311874907.064969 1.185419 8.992423 3.149144
1311874907.068239 1.185419 8.896631 3.340727
1311874907.069556 1.185419 8.896631 3.340727
1311874907.072843 1.185419 8.896631 3.244935
1311874907.073833 1.185419 8.896631 3.244935
1311874907.075096 1.185419 8.896631 3.244935
1311874907.076112 1.185419 8.896631 3.244935
1311874907.079726 1.173445 8.800840 3.053353
1311874907.080722 1.173445 8.800840 3.053353
1311874907.083961 1.161471 8.717022 3.053353
1311874907.084955 1.161471 8.717022 3.053353
1311874907.088083 1.089628 8.705048 3.101248
1311874907.089541 1.089628 8.705048 3.101248
1311874907.092794 1.185419 8.800840 3.436518
1311874907.093817 1.185419 8.800840 3.436518
1311874907.095047 1.185419 8.800840 3.436518
1311874907.096150 1.185419 8.800840 3.436518
1311874907.099716 1.185419 8.705048 3.628101
1311874907.100702 1.185419 8.705048 3.628101
1311874907.103805 1.269237 8.896631 3.723893
1311874907.104921 1.269237 8.896631 3.723893
1311874907.108048 1.221341 8.752944 3.723893
1311874907.109555 1.221341 8.752944 3.723893
1311874907.112865 1.365028 8.705048 3.795736
1311874907.113838 1.365028 8.705048 3.795736
1311874907.115077 1.365028 8.705048 3.795736
1311874907.116045 1.365028 8.705048 3.795736
1311874907.119540 1.173445 8.705048 3.771788
1311874907.120668 1.173445 8.705048 3.771788
1311874907.123923 1.221341 8.609257 3.723893
1311874907.124941 1.221341 8.609257 3.723893
1311874907.128568 1.185419 8.513465 3.723893
1311874907.129730 1.185419 8.513465 3.723893
1311874907.130712 1.185419 8.513465 3.723893
1311874907.133942 1.185419 8.417674 3.807710
1311874907.134934 1.185419 8.417674 3.807710
1311874907.138613 1.185419 8.513465 3.628101
1311874907.139555 1.185419 8.513465 3.628101
1311874907.140681 1.185419 8.513465 3.628101
1311874907.143961 1.089628 8.657153 3.628101
1311874907.144938 1.089628 8.657153 3.628101
1311874907.148555 1.089628 8.705048 3.484414
1311874907.149686 1.089628 8.705048 3.484414
1311874907.150715 1.089628 8.705048 3.484414
1311874907.153939 1.185419 8.728996 3.628101
1311874907.155017 1.185419 8.728996 3.628101
1311874907.158547 1.185419 8.752944 3.532310
1311874907.159560 1.185419 8.752944 3.532310
1311874907.162847 1.185419 8.752944 3.628101
1311874907.163849 1.185419 8.752944 3.628101
1311874907.165097 1.185419 8.752944 3.628101
1311874907.166062 1.185419 8.752944 3.628101
1311874907.169675 1.185419 8.752944 3.484414
1311874907.170678 1.185419 8.752944 3.484414
1311874907.173987 1.173445 8.728996 3.436518
1311874907.174948 1.173445 8.728996 3.436518
1311874907.178567 1.185419 8.705048 3.436518
1311874907.179594 1.185419 8.705048 3.436518
1311874907.180601 1.185419 8.705048 3.436518
1311874907.183957 1.185419 8.705048 3.053353
1311874907.185078 1.185419 8.705048 3.053353
1311874907.188584 1.089628 8.896631 3.053353
1311874907.189586 1.089628 8.896631 3.053353
1311874907.192797 1.089628 8.992423 3.053353
1311874907.193817 1.089628 8.992423 3.053353
1311874907.195064 1.089628 8.992423 3.053353
1311874907.196066 1.089628 8.992423 3.053353
1311874907.199694 0.993836 8.896631 3.041379
1311874907.200676 0.993836 8.896631 3.041379
1311874907.203813 1.089628 8.896631 3.053353
1311874907.204945 1.089628 8.896631 3.053353
1311874907.208202 1.089628 9.040318 3.029405
1311874907.209578 1.089628 9.040318 3.029405
1311874907.212809 0.993836 8.992423 3.388623
1311874907.213824 0.993836 8.992423 3.388623
1311874907.215054 0.993836 8.992423 3.388623
1311874907.216045 0.993836 8.992423 3.388623
1311874907.219684 0.814227 9.088214 3.532310
1311874907.220686 0.814227 9.088214 3.532310
1311874907.223958 0.802253 9.279797 3.628101
1311874907.224954 0.802253 9.279797 3.628101
1311874907.228793 0.886071 9.136110 3.628101
1311874907.229697 0.886071 9.136110 3.628101
1311874907.230680 0.886071 9.136110 3.628101
1311874907.233942 0.993836 9.136110 3.819684
1311874907.234922 0.993836 9.136110 3.819684
1311874907.238564 1.089628 9.279797 4.202850
1311874907.239558 1.089628 9.279797 4.202850
1311874907.242830 1.173445 9.088214 4.298641
1311874907.243809 1.173445 9.088214 4.298641
1311874907.245080 1.173445 9.088214 4.298641
1311874907.246102 1.173445 9.088214 4.298641
1311874907.249684 0.993836 9.088214 4.250746
1311874907.250682 0.993836 9.088214 4.250746
1311874907.253940 1.089628 9.088214 4.250746
1311874907.254941 1.089628 9.088214 4.250746
1311874907.258541 1.161471 9.088214 4.226798
1311874907.259550 1.161471 9.088214 4.226798
1311874907.262896 1.137524 9.088214 4.178902
1311874907.264740 1.137524 9.088214 4.178902
1311874907.267068 0.993836 9.184006 4.202850
1311874907.268191 0.993836 9.184006 4.202850
1311874907.269673 0.993836 9.184006 4.202850
1311874907.270857 0.993836 9.184006 4.202850
1311874907.274585 0.993836 9.136110 3.915476
1311874907.275497 0.993836 9.136110 3.915476
1311874907.278714 0.993836 9.184006 4.178902
1311874907.279833 0.993836 9.184006 4.178902
1311874907.282953 0.838175 9.279797 4.011267
1311874907.283942 0.838175 9.279797 4.011267
1311874907.287585 0.886071 9.279797 3.819684
1311874907.288579 0.886071 9.279797 3.819684
1311874907.289827 0.886071 9.279797 3.819684
1311874907.290798 0.886071 9.279797 3.819684
1311874907.294067 1.137524 9.459406 3.819684
1311874907.295062 1.137524 9.459406 3.819684
1311874907.298567 1.161471 9.279797 3.819684
1311874907.299706 1.161471 9.279797 3.819684
1311874907.302807 1.173445 9.136110 3.819684
1311874907.303961 1.173445 9.136110 3.819684
1311874907.305551 1.173445 9.136110 3.819684
1311874907.308938 1.161471 9.040318 3.723893
1311874907.309794 1.161471 9.040318 3.723893
1311874907.310798 1.161471 9.040318 3.723893
1311874907.313944 1.173445 8.896631 3.628101
1311874907.315044 1.173445 8.896631 3.628101
1311874907.318536 1.089628 8.800840 3.628101
1311874907.319534 1.089628 8.800840 3.628101
1311874907.322790 0.993836 8.705048 3.628101
1311874907.323793 0.993836 8.705048 3.628101
1311874907.325076 0.993836 8.705048 3.628101
1311874907.326156 0.993836 8.705048 3.628101
1311874907.329745 1.089628 8.657153 3.628101
1311874907.330680 1.089628 8.657153 3.628101
1311874907.333948 0.993836 8.657153 3.723893
1311874907.334920 0.993836 8.657153 3.723893
1311874907.338624 1.173445 8.609257 3.723893
1311874907.339559 1.173445 8.609257 3.723893
1311874907.342988 1.137524 8.705048 3.771788
1311874907.343951 1.137524 8.705048 3.771788
1311874907.345083 1.137524 8.705048 3.771788
1311874907.348567 1.137524 8.609257 3.819684
1311874907.349569 1.137524 8.609257 3.819684
1311874907.352876 1.221341 8.513465 3.819684
1311874907.353826 1.221341 8.513465 3.819684
1311874907.355054 1.221341 8.513465 3.819684
1311874907.356063 1.221341 8.513465 3.819684
1311874907.359694 1.185419 8.321882 4.011267
1311874907.360693 1.185419 8.321882 4.011267
1311874907.363990 1.185419 8.321882 4.154954
1311874907.364943 1.185419 8.321882 4.154954
1311874907.368179 1.173445 8.309909 4.178902
1311874907.369553 1.173445 8.309909 4.178902
1311874907.372806 1.137524 8.321882 4.011267
1311874907.373807 1.137524 8.321882 4.011267
1311874907.375123 1.137524 8.321882 4.011267
1311874907.376099 1.137524 8.321882 4.011267
1311874907.379696 1.185419 8.226091 3.819684
1311874907.380823 1.185419 8.226091 3.819684
1311874907.383948 1.185419 8.273987 3.819684
1311874907.384950 1.185419 8.273987 3.819684
1311874907.388536 1.137524 8.034508 3.819684
1311874907.389694 1.137524 8.034508 3.819684
1311874907.390688 1.137524 8.034508 3.819684
1311874907.393944 1.185419 8.130300 4.011267
1311874907.395060 1.185419 8.130300 4.011267
1311874907.398553 1.185419 8.130300 3.819684
1311874907.399591 1.185419 8.130300 3.819684
1311874907.402823 1.173445 8.130300 3.723893
1311874907.403788 1.173445 8.130300 3.723893
1311874907.405120 1.173445 8.130300 3.723893
1311874907.406058 1.173445 8.130300 3.723893
1311874907.409708 1.185419 8.130300 3.819684
1311874907.410667 1.185419 8.130300 3.819684
1311874907.413930 1.089628 8.226091 3.628101
1311874907.414992 1.089628 8.226091 3.628101
1311874907.418555 1.137524 8.321882 3.795736
1311874907.419560 1.137524 8.321882 3.795736
1311874907.422812 1.173445 8.321882 3.819684
1311874907.423799 1.173445 8.321882 3.819684
1311874907.425073 1.173445 8.321882 3.819684
1311874907.426087 1.173445 8.321882 3.819684
1311874907.429761 1.089628 8.345830 3.448492
1311874907.430678 1.089628 8.345830 3.448492
1311874907.433930 0.993836 8.417674 3.448492
1311874907.434953 0.993836 8.417674 3.448492
1311874907.438565 1.137524 8.321882 3.819684
1311874907.439544 1.137524 8.321882 3.819684
1311874907.442823 1.185419 8.369778 3.831658
1311874907.443799 1.185419 8.369778 3.831658
1311874907.445061 1.185419 8.369778 3.831658
1311874907.446059 1.185419 8.369778 3.831658
1311874907.449692 0.993836 8.321882 4.107059
1311874907.450676 0.993836 8.321882 4.107059
1311874907.453949 0.993836 8.321882 4.107059
1311874907.454939 0.993836 8.321882 4.107059
1311874907.458538 0.886071 8.321882 4.011267
1311874907.459555 0.886071 8.321882 4.011267
1311874907.462807 0.993836 8.321882 4.178902
1311874907.463809 0.993836 8.321882 4.178902
1311874907.465078 0.993836 8.321882 4.178902
1311874907.466055 0.993836 8.321882 4.178902
1311874907.469670 1.173445 8.321882 4.298641
1311874907.470661 1.173445 8.321882 4.298641
1311874907.473973 1.089628 8.321882 4.298641
1311874907.474934 1.089628 8.321882 4.298641
1311874907.478594 1.161471 8.321882 4.226798
1311874907.479556 1.161471 8.321882 4.226798
1311874907.480707 1.161471 8.321882 4.226798
1311874907.483947 1.173445 8.130300 4.490224
1311874907.485094 1.173445 8.130300 4.490224
1311874907.488570 0.838175 8.226091 4.202850
1311874907.489717 0.838175 8.226091 4.202850
1311874907.492817 0.886071 8.226091 4.394433
1311874907.493937 0.886071 8.226091 4.394433
1311874907.495062 0.886071 8.226091 4.394433
1311874907.496061 0.886071 8.226091 4.394433
1311874907.499687 0.993836 8.321882 4.298641
1311874907.500805 0.993836 8.321882 4.298641
1311874907.503927 0.993836 8.321882 4.214824
1311874907.505071 0.993836 8.321882 4.214824
1311874907.508561 0.993836 8.321882 4.226798
1311874907.509550 0.993836 8.321882 4.226798
1311874907.512832 1.089628 8.321882 4.226798
1311874907.513799 1.089628 8.321882 4.226798
1311874907.515064 1.089628 8.321882 4.226798
1311874907.516049 1.089628 8.321882 4.226798
1311874907.519686 1.185419 8.273987 4.011267
1311874907.520663 1.185419 8.273987 4.011267
1311874907.523917 0.993836 8.226091 4.107059
1311874907.524932 0.993836 8.226091 4.107059
1311874907.528563 0.993836 8.321882 3.819684
1311874907.529550 0.993836 8.321882 3.819684
1311874907.532808 0.993836 8.321882 3.819684
1311874907.533795 0.993836 8.321882 3.819684
1311874907.535054 0.993836 8.321882 3.819684
1311874907.536041 0.993836 8.321882 3.819684
1311874907.539690 0.993836 8.513465 3.628101
1311874907.540669 0.993836 8.513465 3.628101
1311874907.543932 0.802253 8.417674 3.771788
1311874907.544968 0.802253 8.417674 3.771788
1311874907.548547 0.886071 8.417674 3.628101
1311874907.549616 0.886071 8.417674 3.628101
1311874907.552946 0.802253 8.513465 4.011267
1311874907.553948 0.802253 8.513465 4.011267
1311874907.555033 0.802253 8.513465 4.011267
1311874907.556200 0.802253 8.513465 4.011267
1311874907.559762 0.802253 8.705048 4.107059
1311874907.560699 0.802253 8.705048 4.107059
1311874907.563987 0.838175 8.657153 4.202850
1311874907.564939 0.838175 8.657153 4.202850
1311874907.568552 0.993836 8.513465 4.202850
1311874907.569535 0.993836 8.513465 4.202850
1311874907.572844 0.993836 8.321882 4.202850
1311874907.573925 0.993836 8.321882 4.202850
1311874907.575048 0.993836 8.321882 4.202850
1311874907.576054 0.993836 8.321882 4.202850
1311874907.579588 0.993836 8.321882 4.202850
1311874907.580667 0.993836 8.321882 4.202850
1311874907.583952 0.886071 8.345830 4.202850
1311874907.584823 0.886071 8.345830 4.202850
1311874907.587797 0.886071 8.321882 4.202850
1311874907.588924 0.886071 8.321882 4.202850
1311874907.590446 0.886071 8.321882 4.202850
1311874907.591531 0.886071 8.321882 4.202850
1311874907.594819 0.802253 8.417674 4.202850
1311874907.595835 0.802253 8.417674 4.202850
1311874907.599066 0.886071 8.513465 4.394433
1311874907.600059 0.886071 8.513465 4.394433
1311874907.603567 0.802253 8.513465 4.394433
1311874907.604664 0.802253 8.513465 4.394433
1311874907.607829 0.814227 8.417674 4.202850
1311874907.608790 0.814227 8.417674 4.202850
1311874907.610074 0.814227 8.417674 4.202850
1311874907.611082 0.814227 8.417674 4.202850
1311874907.614688 0.802253 8.513465 4.011267
1311874907.615658 0.802253 8.513465 4.011267
1311874907.618927 0.993836 8.681100 4.250746
1311874907.619947 0.993836 8.681100 4.250746
1311874907.623551 0.790279 8.705048 4.154954
1311874907.624684 0.790279 8.705048 4.154954
1311874907.627804 0.802253 8.693074 4.178902
1311874907.628810 0.802253 8.693074 4.178902
1311874907.630076 0.802253 8.693074 4.178902
1311874907.631108 0.802253 8.693074 4.178902
1311874907.634679 0.802253 8.513465 4.154954
1311874907.635669 0.802253 8.513465 4.154954
1311874907.638930 0.802253 8.609257 4.394433
1311874907.639913 0.802253 8.609257 4.394433
1311874907.643561 0.598697 8.705048 4.394433
1311874907.644706 0.598697 8.705048 4.394433
1311874907.645699 0.598697 8.705048 4.394433
1311874907.648949 0.802253 8.417674 4.394433
1311874907.649923 0.802253 8.417674 4.394433
1311874907.653600 0.802253 8.513465 4.202850
1311874907.654569 0.802253 8.513465 4.202850
1311874907.657790 0.802253 8.369778 4.202850
1311874907.658795 0.802253 8.369778 4.202850
1311874907.660061 0.802253 8.369778 4.202850
1311874907.661195 0.802253 8.369778 4.202850
1311874907.664841 0.802253 8.321882 4.562068
1311874907.665802 0.802253 8.321882 4.562068
1311874907.669059 0.706462 8.321882 4.586016
1311874907.670083 0.706462 8.321882 4.586016
1311874907.673693 0.598697 8.321882 4.394433
1311874907.674669 0.598697 8.321882 4.394433
1311874907.677924 0.790279 8.321882 4.586016
1311874907.678935 0.790279 8.321882 4.586016
1311874907.680193 0.790279 8.321882 4.586016
1311874907.681549 0.790279 8.321882 4.586016
1311874907.684808 0.802253 8.321882 4.586016
1311874907.685820 0.802253 8.321882 4.586016
1311874907.689074 0.802253 8.417674 4.633912
1311874907.690059 0.802253 8.417674 4.633912
1311874907.693704 0.790279 8.513465 4.681807
1311874907.694696 0.790279 8.513465 4.681807
1311874907.697979 0.790279 8.417674 4.586016
1311874907.698932 0.790279 8.417674 4.586016
1311874907.700230 0.790279 8.417674 4.586016
1311874907.701540 0.790279 8.417674 4.586016
1311874907.704680 0.790279 8.417674 4.586016
1311874907.705831 0.790279 8.417674 4.586016
1311874907.708930 0.802253 8.321882 4.777599
1311874907.710095 0.802253 8.321882 4.777599
1311874907.713631 0.886071 8.321882 4.777599
1311874907.714549 0.886071 8.321882 4.777599
1311874907.717944 0.838175 8.130300 4.873390
1311874907.718917 0.838175 8.130300 4.873390
1311874907.720160 0.838175 8.130300 4.873390
1311874907.721526 0.838175 8.130300 4.873390
1311874907.724815 0.993836 7.986612 4.777599
1311874907.725778 0.993836 7.986612 4.777599
1311874907.729078 0.993836 7.890821 4.777599
1311874907.730108 0.993836 7.890821 4.777599
1311874907.733677 0.886071 7.914769 4.538120
1311874907.734663 0.886071 7.914769 4.538120
1311874907.737922 0.993836 7.567525 4.597990
1311874907.738931 0.993836 7.567525 4.597990
1311874907.742595 0.838175 7.603447 4.574042
1311874907.743693 0.838175 7.603447 4.574042
1311874907.744701 0.838175 7.603447 4.574042
1311874907.747841 0.802253 7.555551 4.586016
1311874907.748986 0.802253 7.555551 4.586016
1311874907.750535 0.802253 7.555551 4.586016
1311874907.753706 0.802253 7.363968 4.586016
1311874907.754698 0.802253 7.363968 4.586016
1311874907.757940 0.790279 7.555551 4.394433
1311874907.758902 0.790279 7.555551 4.394433
1311874907.762578 0.802253 7.555551 4.681807
1311874907.763690 0.802253 7.555551 4.681807
1311874907.764939 0.802253 7.555551 4.681807
1311874907.765916 0.802253 7.555551 4.681807
1311874907.769075 0.838175 7.555551 4.969182
1311874907.770042 0.838175 7.555551 4.969182
1311874907.773666 0.802253 7.555551 4.681807
1311874907.774659 0.802253 7.555551 4.681807
1311874907.777932 0.886071 7.567525 5.017077
1311874907.779097 0.886071 7.567525 5.017077
1311874907.782557 0.802253 7.567525 5.160765
1311874907.783620 0.802253 7.567525 5.160765
1311874907.784943 0.802253 7.567525 5.160765
1311874907.785942 0.802253 7.567525 5.160765
1311874907.789046 0.802253 7.567525 5.352347
1311874907.790075 0.802253 7.567525 5.352347
1311874907.793540 0.802253 7.747134 5.256556
1311874907.794680 0.802253 7.747134 5.256556
1311874907.797860 0.886071 7.651342 5.160765
1311874907.798826 0.886071 7.651342 5.160765
1311874907.800055 0.886071 7.651342 5.160765
1311874907.801170 0.886071 7.651342 5.160765
1311874907.804685 0.802253 7.747134 5.352347
1311874907.805666 0.802253 7.747134 5.352347
1311874907.808927 0.886071 7.747134 4.969182
1311874907.809949 0.886071 7.747134 4.969182
1311874907.813547 0.790279 7.747134 5.160765
1311874907.814543 0.790279 7.747134 5.160765
1311874907.817921 0.790279 7.651342 4.969182
1311874907.818796 0.790279 7.651342 4.969182
1311874907.820032 0.790279 7.651342 4.969182
1311874907.821166 0.790279 7.651342 4.969182
1311874907.824672 0.706462 7.747134 4.921286
1311874907.825824 0.706462 7.747134 4.921286
1311874907.828925 0.598697 7.890821 4.681807
1311874907.830062 0.598697 7.890821 4.681807
1311874907.834039 0.754358 7.914769 4.633912
1311874907.834787 0.754358 7.914769 4.633912
1311874907.835913 0.754358 7.914769 4.633912
1311874907.838918 0.802253 7.914769 4.681807
1311874907.839915 0.802253 7.914769 4.681807
1311874907.843601 0.802253 8.034508 4.681807
1311874907.844568 0.802253 8.034508 4.681807
1311874907.847813 0.802253 7.962665 4.586016
1311874907.848927 0.802253 7.962665 4.586016
1311874907.850067 0.802253 7.962665 4.586016
1311874907.851055 0.802253 7.962665 4.586016
1311874907.854694 0.790279 8.130300 4.538120
1311874907.855698 0.790279 8.130300 4.538120
