# accelerometer data
# file: 'rgbd_dataset_freiburg2_large_with_loop.bag'
# timestamp ax ay az
1311875571.702356 -0.742384 9.471380 -0.778306
1311875571.705343 -0.538827 9.471380 -0.969888
1311875571.706342 -0.538827 9.471380 -0.969888
1311875571.709981 -0.538827 9.471380 -0.778306
1311875571.710992 -0.538827 9.471380 -0.778306
1311875571.712352 -0.538827 9.471380 -0.778306
1311875571.713371 -0.538827 9.471380 -0.778306
1311875571.716483 -0.359218 9.471380 -0.874097
1311875571.717467 -0.359218 9.471380 -0.874097
1311875571.721122 -0.167635 9.662963 -0.778306
1311875571.722088 -0.167635 9.662963 -0.778306
1311875571.725371 0.023948 9.758754 -0.969888
1311875571.726355 0.023948 9.758754 -0.969888
1311875571.727478 0.023948 9.758754 -0.969888
1311875571.728873 0.023948 9.758754 -0.969888
1311875571.732229 0.023948 9.662963 -0.778306
1311875571.733243 0.023948 9.662963 -0.778306
1311875571.736478 0.047896 9.758754 -0.682514
1311875571.737479 0.047896 9.758754 -0.682514
1311875571.740978 0.023948 9.662963 -0.682514
1311875571.742123 0.023948 9.662963 -0.682514
1311875571.745222 0.023948 9.662963 -0.778306
1311875571.746253 0.023948 9.662963 -0.778306
1311875571.747498 0.023948 9.662963 -0.778306
1311875571.748632 0.023948 9.662963 -0.778306
1311875571.752095 0.023948 9.758754 -0.778306
1311875571.753104 0.023948 9.758754 -0.778306
1311875571.756355 0.035922 9.854546 -0.969888
1311875571.757354 0.035922 9.854546 -0.969888
1311875571.760966 0.023948 10.046129 -0.826201
1311875571.761964 0.023948 10.046129 -0.826201
1311875571.765213 0.023948 10.261659 -1.161471
1311875571.766343 0.023948 10.261659 -1.161471
1311875571.767608 0.023948 10.261659 -1.161471
1311875571.768876 0.023948 10.261659 -1.161471
1311875571.772226 -0.059870 10.525086 -1.161471
1311875571.773227 -0.059870 10.525086 -1.161471
1311875571.776499 -0.311322 10.620877 -1.161471
1311875571.777478 -0.311322 10.620877 -1.161471
1311875571.781097 -0.335270 10.716669 -1.209367
1311875571.782106 -0.335270 10.716669 -1.209367
1311875571.785375 -0.263426 10.632851 -1.448846
1311875571.786355 -0.263426 10.632851 -1.448846
1311875571.790003 -0.347244 10.716669 -1.448846
1311875571.790963 -0.347244 10.716669 -1.448846
1311875571.792119 -0.347244 10.716669 -1.448846
1311875571.795337 -0.335270 10.620877 -1.496741
1311875571.796354 -0.335270 10.620877 -1.496741
1311875571.799994 -0.167635 10.620877 -1.520689
1311875571.801101 -0.167635 10.620877 -1.520689
1311875571.802104 -0.167635 10.620877 -1.520689
1311875571.805338 0.011974 10.620877 -1.544637
1311875571.806355 0.011974 10.620877 -1.544637
1311875571.809981 0.023948 10.620877 -1.448846
1311875571.811100 0.023948 10.620877 -1.448846
1311875571.812069 0.023948 10.620877 -1.448846
1311875571.815351 0.023948 10.716669 -1.520689
1311875571.816350 0.023948 10.716669 -1.520689
1311875571.819847 0.119739 10.908252 -1.496741
1311875571.821107 0.119739 10.908252 -1.496741
1311875571.822103 0.119739 10.908252 -1.496741
1311875571.825350 0.227505 11.004043 -1.544637
1311875571.826350 0.227505 11.004043 -1.544637
1311875571.829872 0.227505 11.004043 -1.520689
1311875571.830995 0.227505 11.004043 -1.520689
1311875571.832222 0.227505 11.004043 -1.520689
1311875571.833351 0.227505 11.004043 -1.520689
1311875571.836475 0.407114 11.004043 -1.496741
1311875571.837476 0.407114 11.004043 -1.496741
1311875571.840977 0.407114 10.992069 -1.448846
1311875571.842120 0.407114 10.992069 -1.448846
1311875571.845334 0.598697 10.812460 -1.161471
1311875571.846372 0.598697 10.812460 -1.161471
1311875571.847524 0.598697 10.812460 -1.161471
1311875571.848967 0.598697 10.812460 -1.161471
1311875571.852228 0.802253 10.716669 -0.826201
1311875571.853225 0.802253 10.716669 -0.826201
1311875571.856477 1.173445 10.620877 -0.778306
1311875571.857460 1.173445 10.620877 -0.778306
1311875571.860977 1.161471 10.620877 -0.874097
1311875571.862102 1.161471 10.620877 -0.874097
1311875571.865225 1.173445 10.525086 -0.969888
1311875571.866354 1.173445 10.525086 -0.969888
1311875571.867478 1.173445 10.525086 -0.969888
1311875571.868569 1.173445 10.525086 -0.969888
1311875571.872228 1.365028 10.046129 -1.353054
1311875571.873227 1.365028 10.046129 -1.353054
1311875571.876477 1.472794 9.854546 -1.353054
1311875571.877478 1.472794 9.854546 -1.353054
1311875571.880986 1.604507 9.471380 -1.257263
1311875571.881949 1.604507 9.471380 -1.257263
1311875571.885211 1.760168 9.279797 -1.353054
1311875571.886352 1.760168 9.279797 -1.353054
1311875571.887453 1.760168 9.279797 -1.353054
1311875571.888586 1.760168 9.279797 -1.353054
1311875571.892239 1.951751 9.088214 -1.448846
1311875571.893225 1.951751 9.088214 -1.448846
1311875571.896459 2.035568 9.076240 -1.544637
1311875571.897459 2.035568 9.076240 -1.544637
1311875571.901092 2.239125 9.088214 -1.161471
1311875571.902102 2.239125 9.088214 -1.161471
1311875571.905531 2.131360 8.992423 -1.544637
1311875571.906479 2.131360 8.992423 -1.544637
1311875571.909954 2.131360 9.064266 -1.736220
1311875571.911104 2.131360 9.064266 -1.736220
1311875571.912326 2.131360 9.064266 -1.736220
1311875571.913347 2.131360 9.064266 -1.736220
1311875571.916475 2.131360 9.088214 -1.496741
1311875571.917476 2.131360 9.088214 -1.496741
1311875571.921103 2.131360 9.088214 -1.556611
1311875571.922078 2.131360 9.088214 -1.556611
1311875571.925223 2.131360 9.136110 -1.544637
1311875571.926350 2.131360 9.136110 -1.544637
1311875571.927444 2.131360 9.136110 -1.544637
1311875571.928584 2.131360 9.136110 -1.544637
1311875571.932101 2.131360 9.064266 -1.544637
1311875571.933098 2.131360 9.064266 -1.544637
1311875571.936351 1.987673 9.040318 -1.544637
1311875571.937334 1.987673 9.040318 -1.544637
1311875571.940956 2.131360 8.800840 -1.544637
1311875571.941949 2.131360 8.800840 -1.544637
1311875571.945200 2.239125 8.705048 -1.544637
1311875571.946211 2.239125 8.705048 -1.544637
1311875571.947457 2.239125 8.705048 -1.544637
1311875571.948575 2.239125 8.705048 -1.544637
1311875571.952063 2.370838 8.513465 -1.353054
1311875571.953058 2.370838 8.513465 -1.353054
1311875571.956335 2.706109 8.417674 -1.161471
1311875571.957332 2.706109 8.417674 -1.161471
1311875571.961090 2.897691 8.513465 -0.778306
1311875571.962104 2.897691 8.513465 -0.778306
1311875571.965224 3.089274 8.321882 -0.826201
1311875571.966354 3.089274 8.321882 -0.826201
1311875571.967477 3.089274 8.321882 -0.826201
1311875571.968585 3.089274 8.321882 -0.826201
1311875571.972224 3.436518 8.333856 -1.257263
1311875571.973222 3.436518 8.333856 -1.257263
1311875571.976472 3.472440 8.333856 -1.544637
1311875571.977471 3.472440 8.333856 -1.544637
1311875571.981099 3.520336 8.417674 -1.736220
1311875571.982118 3.520336 8.417674 -1.736220
1311875571.985333 3.568232 8.705048 -1.927803
1311875571.986348 3.568232 8.705048 -1.927803
1311875571.989994 3.819684 8.705048 -1.927803
1311875571.990943 3.819684 8.705048 -1.927803
1311875571.992241 3.819684 8.705048 -1.927803
1311875571.993217 3.819684 8.705048 -1.927803
1311875571.996489 3.664023 8.369778 -1.736220
1311875571.997473 3.664023 8.369778 -1.736220
1311875572.001075 3.664023 8.321882 -1.544637
1311875572.002090 3.664023 8.321882 -1.544637
1311875572.005338 3.520336 8.226091 -1.448846
1311875572.006337 3.520336 8.226091 -1.448846
1311875572.010023 3.472440 8.297935 -1.209367
1311875572.010960 3.472440 8.297935 -1.209367
1311875572.012213 3.472440 8.297935 -1.209367
1311875572.013399 3.472440 8.297935 -1.209367
1311875572.016464 3.137170 8.321882 -0.874097
1311875572.017597 3.137170 8.321882 -0.874097
1311875572.021224 3.089274 8.513465 -0.778306
1311875572.022097 3.089274 8.513465 -0.778306
1311875572.025332 2.897691 8.705048 -0.754358
1311875572.026350 2.897691 8.705048 -0.754358
1311875572.027964 2.897691 8.705048 -0.754358
1311875572.031082 2.730056 8.752944 -0.395140
1311875572.032187 2.730056 8.752944 -0.395140
1311875572.035334 2.730056 8.705048 -0.395140
1311875572.036348 2.730056 8.705048 -0.395140
1311875572.039953 2.718082 8.609257 -0.299348
1311875572.040949 2.718082 8.609257 -0.299348
1311875572.042202 2.718082 8.609257 -0.299348
1311875572.043229 2.718082 8.609257 -0.299348
1311875572.046333 2.801900 7.986612 0.275400
1311875572.047328 2.801900 7.986612 0.275400
1311875572.050961 2.897691 7.950691 0.347244
1311875572.051955 2.897691 7.950691 0.347244
1311875572.055204 3.005457 8.226091 0.083818
1311875572.056325 3.005457 8.226091 0.083818
1311875572.057442 3.005457 8.226091 0.083818
1311875572.058578 3.005457 8.226091 0.083818
1311875572.062099 2.897691 8.513465 -0.011974
1311875572.063082 2.897691 8.513465 -0.011974
1311875572.066345 2.897691 8.417674 0.371192
1311875572.067349 2.897691 8.417674 0.371192
1311875572.070958 2.801900 8.321882 0.359218
1311875572.071962 2.801900 8.321882 0.359218
1311875572.075211 2.718082 8.321882 0.083818
1311875572.076332 2.718082 8.321882 0.083818
1311875572.077454 2.718082 8.321882 0.083818
1311875572.078569 2.718082 8.321882 0.083818
1311875572.082227 2.622291 8.369778 0.083818
1311875572.083083 2.622291 8.369778 0.083818
1311875572.086351 2.526500 8.513465 0.179609
1311875572.087327 2.526500 8.513465 0.179609
1311875572.090652 2.418734 8.513465 0.179609
1311875572.092082 2.418734 8.513465 0.179609
1311875572.093094 2.418734 8.513465 0.179609
1311875572.096222 2.035568 8.513465 0.179609
1311875572.097346 2.035568 8.513465 0.179609
1311875572.100222 1.951751 8.513465 0.000000
1311875572.101271 1.951751 8.513465 0.000000
1311875572.102491 1.951751 8.513465 0.000000
1311875572.103475 1.951751 8.513465 0.000000
1311875572.106956 1.544637 8.609257 -0.035922
1311875572.107973 1.544637 8.609257 -0.035922
1311875572.109113 1.544637 8.609257 -0.035922
1311875572.112457 1.185419 8.705048 -0.347244
1311875572.113470 1.185419 8.705048 -0.347244
1311875572.116962 0.993836 8.705048 -0.395140
1311875572.118104 0.993836 8.705048 -0.395140
1311875572.121351 0.802253 8.896631 -0.586723
1311875572.122348 0.802253 8.896631 -0.586723
1311875572.125330 0.407114 9.854546 -0.586723
1311875572.126348 0.407114 9.854546 -0.586723
1311875572.129951 0.323296 10.046129 -0.778306
1311875572.130954 0.323296 10.046129 -0.778306
1311875572.132220 0.323296 10.046129 -0.778306
1311875572.133208 0.323296 10.046129 -0.778306
1311875572.136473 0.455009 9.495328 -0.969888
1311875572.137468 0.455009 9.495328 -0.969888
1311875572.141114 0.407114 9.279797 -0.874097
1311875572.142080 0.407114 9.279797 -0.874097
1311875572.145331 0.407114 9.100188 -0.969888
1311875572.146327 0.407114 9.100188 -0.969888
1311875572.149982 0.598697 9.184006 -1.113576
1311875572.150953 0.598697 9.184006 -1.113576
1311875572.152225 0.598697 9.184006 -1.113576
1311875572.153219 0.598697 9.184006 -1.113576
1311875572.156474 0.802253 9.471380 -1.496741
1311875572.157474 0.802253 9.471380 -1.496741
1311875572.161083 0.814227 9.758754 -1.544637
1311875572.162095 0.814227 9.758754 -1.544637
1311875572.165331 0.993836 9.854546 -1.927803
1311875572.166348 0.993836 9.854546 -1.927803
1311875572.169944 0.993836 9.854546 -2.119386
1311875572.170957 0.993836 9.854546 -2.119386
1311875572.172198 0.993836 9.854546 -2.119386
1311875572.173345 0.993836 9.854546 -2.119386
1311875572.176456 0.993836 10.046129 -2.358865
1311875572.177451 0.993836 10.046129 -2.358865
1311875572.181101 0.993836 10.046129 -2.694135
1311875572.182220 0.993836 10.046129 -2.694135
1311875572.185333 1.089628 10.046129 -2.670187
1311875572.186334 1.089628 10.046129 -2.670187
1311875572.189994 1.161471 10.213764 -2.502552
1311875572.190953 1.161471 10.213764 -2.502552
1311875572.192221 1.161471 10.213764 -2.502552
1311875572.193220 1.161471 10.213764 -2.502552
1311875572.196475 1.556611 10.237712 -2.310969
1311875572.197449 1.556611 10.237712 -2.310969
1311875572.201217 2.897691 10.812460 -1.640429
1311875572.202221 2.897691 10.812460 -1.640429
1311875572.205453 3.568232 11.027991 -1.161471
1311875572.206473 3.568232 11.027991 -1.161471
1311875572.210098 4.202850 11.195626 -1.736220
1311875572.211088 4.202850 11.195626 -1.736220
1311875572.212325 4.202850 11.195626 -1.736220
1311875572.213325 4.202850 11.195626 -1.736220
1311875572.216977 3.855606 10.812460 -2.694135
1311875572.218001 3.855606 10.812460 -2.694135
1311875572.221471 3.113222 10.237712 -3.843632
1311875572.222517 3.113222 10.237712 -3.843632
1311875572.226219 2.670187 9.854546 -4.609964
1311875572.227268 2.670187 9.854546 -4.609964
1311875572.230469 2.131360 9.567171 -5.088921
1311875572.231518 2.131360 9.567171 -5.088921
1311875572.234950 1.652403 9.471380 -5.376295
1311875572.236077 1.652403 9.471380 -5.376295
1311875572.237345 1.652403 9.471380 -5.376295
1311875572.238311 1.652403 9.471380 -5.376295
1311875572.241580 1.269237 9.471380 -4.657859
1311875572.242601 1.269237 9.471380 -4.657859
1311875572.246226 1.221341 9.471380 -4.226798
1311875572.247198 1.221341 9.471380 -4.226798
1311875572.250351 0.993836 9.519276 -3.831658
1311875572.251350 0.993836 9.519276 -3.831658
1311875572.254952 0.886071 9.483354 -3.508362
1311875572.256093 0.886071 9.483354 -3.508362
1311875572.257334 0.886071 9.483354 -3.508362
1311875572.258326 0.886071 9.483354 -3.508362
1311875572.261987 0.993836 9.471380 -2.694135
1311875572.265205 1.604507 10.046129 -2.310969
1311875572.266219 1.604507 10.046129 -2.310969
1311875572.267468 1.604507 10.046129 -2.310969
1311875572.268577 1.604507 10.046129 -2.310969
1311875572.279598 1.269237 10.046129 -1.951751
1311875572.280465 1.269237 10.046129 -1.520689
1311875572.281801 1.269237 10.046129 -1.520689
1311875572.284973 1.185419 10.046129 -1.544637
1311875572.286759 1.185419 10.046129 -1.544637
1311875572.289960 1.185419 10.189816 -1.927803
1311875572.290951 1.185419 10.189816 -1.927803
1311875572.292609 1.185419 10.189816 -1.927803
1311875572.295359 0.993836 10.189816 -2.119386
1311875572.296345 0.993836 10.189816 -2.119386
1311875572.299949 0.886071 10.141920 -2.215177
1311875572.300939 0.886071 10.141920 -2.215177
1311875572.302216 0.886071 10.141920 -2.215177
1311875572.303220 0.886071 10.141920 -2.215177
1311875572.306804 0.802253 9.854546 -2.310969
1311875572.307804 0.802253 9.854546 -2.310969
1311875572.311123 0.802253 9.567171 -2.119386
1311875572.312110 0.802253 9.567171 -2.119386
1311875572.315353 0.802253 9.471380 -2.215177
1311875572.316328 0.802253 9.471380 -2.215177
1311875572.319985 0.802253 9.136110 -1.975699
1311875572.320984 0.802253 9.136110 -1.975699
1311875572.322210 0.802253 9.136110 -1.975699
1311875572.323189 0.802253 9.136110 -1.975699
1311875572.326325 1.185419 8.992423 -1.951751
1311875572.327340 1.185419 8.992423 -1.951751
1311875572.331033 1.185419 8.896631 -1.975699
1311875572.332090 1.185419 8.896631 -1.975699
1311875572.335227 1.365028 9.076240 -1.879907
1311875572.336327 1.365028 9.076240 -1.879907
1311875572.337475 1.365028 9.076240 -1.879907
1311875572.338567 1.365028 9.076240 -1.879907
1311875572.342075 1.652403 8.992423 -1.927803
1311875572.343097 1.652403 8.992423 -1.927803
1311875572.346456 1.652403 9.088214 -1.640429
1311875572.347436 1.652403 9.088214 -1.640429
1311875572.351070 1.580559 9.040318 -1.927803
1311875572.352095 1.580559 9.040318 -1.927803
1311875572.355973 1.760168 8.992423 -1.927803
1311875572.356938 1.760168 8.992423 -1.927803
1311875572.360092 1.580559 8.896631 -2.023594
1311875572.361075 1.580559 8.896631 -2.023594
1311875572.362305 1.580559 8.896631 -2.023594
1311875572.363344 1.580559 8.896631 -2.023594
1311875572.366467 1.472794 9.088214 -1.975699
1311875572.367473 1.472794 9.088214 -1.975699
1311875572.370983 1.365028 9.184006 -1.951751
1311875572.372102 1.365028 9.184006 -1.951751
1311875572.375349 1.365028 9.279797 -2.119386
1311875572.376336 1.365028 9.279797 -2.119386
1311875572.377603 1.365028 9.279797 -2.119386
1311875572.378573 1.365028 9.279797 -2.119386
1311875572.382067 1.173445 9.471380 -2.119386
1311875572.383194 1.173445 9.471380 -2.119386
1311875572.386328 1.173445 9.495328 -1.939777
1311875572.387442 1.173445 9.495328 -1.939777
1311875572.390955 1.185419 9.375588 -1.927803
1311875572.392091 1.185419 9.375588 -1.927803
1311875572.395392 1.137524 9.184006 -1.736220
1311875572.396327 1.137524 9.184006 -1.736220
1311875572.397475 1.137524 9.184006 -1.736220
1311875572.398577 1.137524 9.184006 -1.736220
1311875572.402077 1.089628 8.992423 -1.927803
1311875572.403076 1.089628 8.992423 -1.927803
1311875572.406330 0.993836 8.800840 -1.736220
1311875572.407447 0.993836 8.800840 -1.736220
1311875572.410946 0.706462 8.728996 -1.736220
1311875572.412082 0.706462 8.728996 -1.736220
1311875572.415205 0.419088 8.896631 -1.736220
1311875572.416209 0.419088 8.896631 -1.736220
1311875572.417454 0.419088 8.896631 -1.736220
1311875572.418452 0.419088 8.896631 -1.736220
1311875572.422341 -0.347244 11.770375 -0.203557
1311875572.423351 -0.347244 11.770375 -0.203557
1311875572.426321 -0.263426 11.578792 -0.011974
1311875572.427338 -0.263426 11.578792 -0.011974
1311875572.430966 -0.263426 10.812460 -0.395140
1311875572.431948 -0.263426 10.812460 -0.395140
1311875572.435258 -0.167635 10.046129 -0.586723
1311875572.436338 -0.167635 10.046129 -0.586723
1311875572.437466 -0.167635 10.046129 -0.586723
1311875572.438445 -0.167635 10.046129 -0.586723
1311875572.442183 -0.059870 9.375588 -0.969888
1311875572.443190 -0.059870 9.375588 -0.969888
1311875572.446501 0.227505 9.184006 -0.778306
1311875572.447455 0.227505 9.184006 -0.778306
1311875572.451101 0.323296 9.088214 -0.874097
1311875572.452058 0.323296 9.088214 -0.874097
1311875572.455209 0.227505 9.088214 -0.874097
1311875572.456324 0.227505 9.088214 -0.874097
1311875572.457595 0.227505 9.088214 -0.874097
1311875572.458946 0.227505 9.088214 -0.874097
1311875572.461969 0.227505 9.136110 -0.969888
1311875572.462945 0.227505 9.136110 -0.969888
1311875572.464136 0.227505 9.136110 -0.969888
1311875572.467342 0.023948 9.088214 -1.353054
1311875572.468459 0.023948 9.088214 -1.353054
1311875572.471949 0.023948 9.088214 -1.448846
1311875572.472943 0.023948 9.088214 -1.448846
1311875572.476214 -0.167635 9.375588 -1.353054
1311875572.477194 -0.167635 9.375588 -1.353054
1311875572.480334 -0.335270 9.423484 -1.353054
1311875572.481338 -0.335270 9.423484 -1.353054
1311875572.483044 -0.335270 9.423484 -1.353054
1311875572.485451 -0.335270 9.471380 -1.353054
1311875572.486458 -0.335270 9.471380 -1.353054
1311875572.490085 -0.263426 9.758754 -1.161471
1311875572.491073 -0.263426 9.758754 -1.161471
1311875572.492363 -0.263426 9.758754 -1.161471
1311875572.493482 -0.263426 9.758754 -1.161471
1311875572.496445 -0.167635 9.878494 -1.161471
1311875572.497434 -0.167635 9.878494 -1.161471
1311875572.500955 -0.167635 9.950337 -1.161471
1311875572.502086 -0.167635 9.950337 -1.161471
1311875572.505201 0.023948 9.902441 -1.161471
1311875572.506436 0.023948 9.902441 -1.161471
1311875572.507430 0.023948 9.902441 -1.161471
1311875572.508552 0.023948 9.902441 -1.161471
1311875572.512088 0.227505 9.806650 -1.173445
1311875572.513071 0.227505 9.806650 -1.173445
1311875572.516335 0.407114 9.471380 -1.185419
1311875572.517333 0.407114 9.471380 -1.185419
1311875572.520952 0.407114 9.136110 -1.209367
1311875572.521935 0.407114 9.136110 -1.209367
1311875572.522934 0.407114 9.136110 -1.209367
1311875572.526407 0.407114 9.076240 -1.544637
1311875572.527308 0.407114 9.076240 -1.544637
1311875572.530967 0.371192 8.992423 -1.544637
1311875572.532076 0.371192 8.992423 -1.544637
1311875572.535193 0.227505 9.064266 -1.736220
1311875572.536201 0.227505 9.064266 -1.736220
1311875572.537451 0.227505 9.064266 -1.736220
1311875572.538457 0.227505 9.064266 -1.736220
1311875572.542074 -0.059870 9.088214 -1.592533
1311875572.543252 -0.059870 9.088214 -1.592533
1311875572.546341 -0.167635 9.040318 -1.736220
1311875572.547445 -0.167635 9.040318 -1.736220
1311875572.550960 -0.347244 8.992423 -1.736220
1311875572.552091 -0.347244 8.992423 -1.736220
1311875572.555204 -0.359218 8.896631 -1.592533
1311875572.556300 -0.359218 8.896631 -1.592533
1311875572.557580 -0.359218 8.896631 -1.592533
1311875572.558547 -0.359218 8.896631 -1.592533
1311875572.562093 -0.646592 8.896631 -1.496741
1311875572.563088 -0.646592 8.896631 -1.496741
1311875572.566324 -0.778306 8.728996 -1.544637
1311875572.567462 -0.778306 8.728996 -1.544637
1311875572.571104 -0.933967 8.705048 -1.544637
1311875572.572062 -0.933967 8.705048 -1.544637
1311875572.575203 -0.933967 8.800840 -1.544637
1311875572.576307 -0.933967 8.800840 -1.544637
1311875572.577462 -0.933967 8.800840 -1.544637
1311875572.578603 -0.933967 8.800840 -1.544637
1311875572.582104 -1.113576 8.717022 -1.161471
1311875572.583195 -1.113576 8.717022 -1.161471
1311875572.586477 -1.125550 8.705048 -0.778306
1311875572.587459 -1.125550 8.705048 -0.778306
1311875572.591086 -1.077654 8.657153 -0.490931
1311875572.592079 -1.077654 8.657153 -0.490931
1311875572.595314 -1.029758 8.705048 -0.203557
1311875572.596420 -1.029758 8.705048 -0.203557
1311875572.599944 -0.933967 8.800840 -0.203557
1311875572.601094 -0.933967 8.800840 -0.203557
1311875572.602088 -0.933967 8.800840 -0.203557
1311875572.605340 -1.077654 8.992423 -0.203557
1311875572.606330 -1.077654 8.992423 -0.203557
1311875572.607938 -1.077654 8.992423 -0.203557
1311875572.611081 -1.077654 9.088214 -0.443035
1311875572.612209 -1.077654 9.088214 -0.443035
1311875572.615379 -1.113576 9.088214 -0.778306
1311875572.616449 -1.113576 9.088214 -0.778306
1311875572.619967 -1.125550 9.064266 -0.730410
1311875572.620939 -1.125550 9.064266 -0.730410
1311875572.622201 -1.125550 9.064266 -0.730410
1311875572.623186 -1.125550 9.064266 -0.730410
1311875572.626338 -1.113576 9.088214 -0.682514
1311875572.627449 -1.113576 9.088214 -0.682514
1311875572.630995 -1.305159 9.088214 -0.778306
1311875572.632055 -1.305159 9.088214 -0.778306
1311875572.635189 -1.305159 9.088214 -0.586723
1311875572.636319 -1.305159 9.088214 -0.586723
1311875572.637464 -1.305159 9.088214 -0.586723
1311875572.638442 -1.305159 9.088214 -0.586723
1311875572.642058 -1.508715 9.279797 -0.874097
1311875572.643203 -1.508715 9.279797 -0.874097
1311875572.646334 -1.305159 9.471380 -1.113576
1311875572.647486 -1.305159 9.471380 -1.113576
1311875572.650956 -1.508715 9.519276 -1.161471
1311875572.652056 -1.508715 9.519276 -1.161471
1311875572.655215 -1.460820 9.519276 -1.173445
1311875572.656238 -1.460820 9.519276 -1.173445
1311875572.657456 -1.460820 9.519276 -1.173445
1311875572.658432 -1.460820 9.519276 -1.173445
1311875572.662099 -1.305159 9.471380 -0.969888
1311875572.663085 -1.305159 9.471380 -0.969888
1311875572.666338 -1.209367 9.471380 -1.161471
1311875572.667335 -1.209367 9.471380 -1.161471
1311875572.670928 -1.113576 9.447432 -0.778306
1311875572.671947 -1.113576 9.447432 -0.778306
1311875572.672945 -1.113576 9.447432 -0.778306
1311875572.676335 -0.933967 9.471380 -0.778306
1311875572.677297 -0.933967 9.471380 -0.778306
1311875572.680943 -1.029758 9.423484 -0.778306
1311875572.681948 -1.029758 9.423484 -0.778306
1311875572.683027 -1.029758 9.423484 -0.778306
1311875572.686332 -1.113576 9.447432 -0.874097
1311875572.687321 -1.113576 9.447432 -0.874097
1311875572.690569 -1.305159 9.519276 -0.730410
1311875572.691947 -1.305159 9.519276 -0.730410
1311875572.695206 -1.412924 9.471380 -1.065680
1311875572.696301 -1.412924 9.471380 -1.065680
1311875572.697429 -1.412924 9.471380 -1.065680
1311875572.698551 -1.412924 9.471380 -1.065680
1311875572.702120 -1.305159 9.471380 -1.448846
1311875572.703219 -1.305159 9.471380 -1.448846
1311875572.706322 -1.305159 9.471380 -1.496741
1311875572.707460 -1.305159 9.471380 -1.496741
1311875572.710980 -1.209367 9.375588 -1.353054
1311875572.712073 -1.209367 9.375588 -1.353054
1311875572.715186 -1.113576 9.375588 -1.544637
1311875572.716320 -1.113576 9.375588 -1.544637
1311875572.717635 -1.113576 9.375588 -1.544637
1311875572.718948 -1.113576 9.375588 -1.544637
1311875572.722079 -1.113576 9.279797 -1.592533
1311875572.723178 -1.113576 9.279797 -1.592533
1311875572.726306 -1.113576 9.279797 -1.736220
1311875572.727459 -1.113576 9.279797 -1.736220
1311875572.730961 -1.113576 9.279797 -1.353054
1311875572.732087 -1.113576 9.279797 -1.353054
1311875572.735380 -1.305159 9.279797 -1.161471
1311875572.736339 -1.305159 9.279797 -1.161471
1311875572.739565 -1.209367 9.088214 -1.161471
1311875572.740942 -1.209367 9.088214 -1.161471
1311875572.742193 -1.209367 9.088214 -1.161471
1311875572.743204 -1.209367 9.088214 -1.161471
1311875572.746453 -1.161471 9.064266 -0.778306
1311875572.747440 -1.161471 9.064266 -0.778306
1311875572.751093 -1.305159 9.088214 -0.778306
1311875572.752067 -1.305159 9.088214 -0.778306
1311875572.755356 -1.113576 9.088214 -0.586723
1311875572.756313 -1.113576 9.088214 -0.586723
1311875572.759941 -1.113576 9.088214 -0.395140
1311875572.760924 -1.113576 9.088214 -0.395140
1311875572.762254 -1.113576 9.088214 -0.395140
1311875572.763187 -1.113576 9.088214 -0.395140
1311875572.766389 -1.113576 9.076240 -0.299348
1311875572.767303 -1.113576 9.076240 -0.299348
1311875572.770969 -1.137524 9.088214 -0.011974
1311875572.771962 -1.137524 9.088214 -0.011974
1311875572.772942 -1.137524 9.088214 -0.011974
1311875572.776359 -1.305159 8.992423 -0.203557
1311875572.777318 -1.305159 8.992423 -0.203557
1311875572.780967 -1.161471 8.705048 -0.203557
1311875572.781940 -1.161471 8.705048 -0.203557
1311875572.782933 -1.161471 8.705048 -0.203557
1311875572.786320 -1.125550 8.657153 -0.203557
1311875572.787340 -1.125550 8.657153 -0.203557
1311875572.790475 -1.113576 8.513465 -0.011974
1311875572.791614 -1.113576 8.513465 -0.011974
1311875572.795085 -0.933967 8.345830 -0.035922
1311875572.796082 -0.933967 8.345830 -0.035922
1311875572.797314 -0.933967 8.345830 -0.035922
1311875572.798470 -0.933967 8.345830 -0.035922
1311875572.801337 -0.742384 8.321882 -0.011974
1311875572.802370 -0.742384 8.321882 -0.011974
1311875572.805958 -0.742384 8.130300 -0.011974
1311875572.806926 -0.742384 8.130300 -0.011974
1311875572.808047 -0.742384 8.130300 -0.011974
1311875572.811328 -0.730410 8.130300 -0.299348
1311875572.812310 -0.730410 8.130300 -0.299348
1311875572.815945 -0.730410 8.321882 -0.443035
1311875572.817014 -0.730410 8.321882 -0.443035
1311875572.820211 -0.646592 8.273987 -0.730410
1311875572.821313 -0.646592 8.273987 -0.730410
1311875572.822560 -0.646592 8.273987 -0.730410
1311875572.823615 -0.646592 8.273987 -0.730410
1311875572.827193 -0.538827 8.321882 -0.969888
1311875572.828172 -0.538827 8.321882 -0.969888
1311875572.831455 -0.538827 8.309909 -1.209367
1311875572.832446 -0.538827 8.309909 -1.209367
1311875572.836072 -0.538827 8.321882 -1.257263
1311875572.837052 -0.538827 8.321882 -1.257263
1311875572.840326 -0.538827 8.321882 -1.353054
1311875572.841318 -0.538827 8.321882 -1.353054
1311875572.844965 -0.646592 8.333856 -1.353054
1311875572.846065 -0.646592 8.333856 -1.353054
1311875572.847058 -0.646592 8.333856 -1.353054
1311875572.850326 -0.538827 8.513465 -1.544637
1311875572.851306 -0.538827 8.513465 -1.544637
1311875572.855207 -0.443035 8.705048 -1.640429
1311875572.856108 -0.443035 8.705048 -1.640429
1311875572.857075 -0.443035 8.705048 -1.640429
1311875572.860353 -0.359218 8.752944 -1.927803
1311875572.861429 -0.359218 8.752944 -1.927803
1311875572.865067 -0.347244 8.992423 -1.927803
1311875572.866129 -0.347244 8.992423 -1.927803
1311875572.867246 -0.347244 8.992423 -1.927803
1311875572.868326 -0.347244 8.992423 -1.927803
1311875572.871463 -0.311322 8.705048 -1.975699
1311875572.872415 -0.311322 8.705048 -1.975699
1311875572.876072 -0.263426 8.657153 -2.263073
1311875572.877064 -0.263426 8.657153 -2.263073
1311875572.880318 -0.167635 8.752944 -2.310969
1311875572.881321 -0.167635 8.752944 -2.310969
1311875572.882947 -0.167635 8.752944 -2.310969
1311875572.886070 -0.059870 9.088214 -2.310969
1311875572.887064 -0.059870 9.088214 -2.310969
1311875572.890354 -0.059870 9.184006 -2.310969
1311875572.891304 -0.059870 9.184006 -2.310969
1311875572.892840 -0.059870 9.184006 -2.310969
1311875572.896205 0.023948 9.471380 -2.310969
1311875572.897063 0.023948 9.471380 -2.310969
1311875572.900333 -0.059870 9.662963 -2.310969
1311875572.901315 -0.059870 9.662963 -2.310969
1311875572.904979 -0.011974 9.806650 -2.358865
1311875572.905948 -0.011974 9.806650 -2.358865
1311875572.906928 -0.011974 9.806650 -2.358865
1311875572.910321 0.023948 9.842572 -2.310969
1311875572.911314 0.023948 9.842572 -2.310969
1311875572.914949 0.023948 10.237712 -2.310969
1311875572.916075 0.023948 10.237712 -2.310969
1311875572.917096 0.023948 10.237712 -2.310969
1311875572.920438 0.071844 10.237712 -2.310969
1311875572.921302 0.071844 10.237712 -2.310969
1311875572.924973 0.119739 10.429294 -2.310969
1311875572.925932 0.119739 10.429294 -2.310969
1311875572.926937 0.119739 10.429294 -2.310969
1311875572.930312 0.227505 10.620877 -2.310969
1311875572.931310 0.227505 10.620877 -2.310969
1311875572.934588 0.227505 10.620877 -2.263073
1311875572.935650 0.227505 10.620877 -2.263073
1311875572.937229 0.227505 10.620877 -2.263073
1311875572.938193 0.227505 10.620877 -2.263073
1311875572.941323 0.227505 10.620877 -2.263073
1311875572.942428 0.227505 10.620877 -2.263073
1311875572.945968 0.227505 10.620877 -2.310969
1311875572.946965 0.227505 10.620877 -2.310969
1311875572.953771 0.323296 10.620877 -2.310969
1311875572.954937 0.395140 10.620877 -2.310969
1311875572.956075 0.395140 10.620877 -2.310969
1311875572.957063 0.395140 10.620877 -2.310969
1311875572.960330 0.455009 10.429294 -2.502552
1311875572.961300 0.455009 10.429294 -2.502552
1311875572.965004 0.502905 9.902441 -2.502552
1311875572.965956 0.502905 9.902441 -2.502552
1311875572.967184 0.502905 9.902441 -2.502552
1311875572.968295 0.502905 9.902441 -2.502552
1311875572.971337 0.598697 9.854546 -2.322943
1311875572.972454 0.598697 9.854546 -2.322943
1311875572.976068 0.419088 9.854546 -2.694135
1311875572.977067 0.419088 9.854546 -2.694135
1311875572.980318 0.455009 9.471380 -2.789926
1311875572.981299 0.455009 9.471380 -2.789926
1311875572.984965 0.419088 9.854546 -2.694135
1311875572.985931 0.419088 9.854546 -2.694135
1311875572.987239 0.419088 9.854546 -2.694135
1311875572.988175 0.419088 9.854546 -2.694135
1311875572.991451 0.407114 9.088214 -3.173092
1311875572.992607 0.407114 9.088214 -3.173092
1311875572.996084 0.407114 9.088214 -3.077300
1311875572.997055 0.407114 9.088214 -3.077300
1311875573.000344 0.227505 9.184006 -2.885718
1311875573.001315 0.227505 9.184006 -2.885718
1311875573.004955 0.119739 9.184006 -3.053353
1311875573.005929 0.119739 9.184006 -3.053353
1311875573.007208 0.119739 9.184006 -3.053353
1311875573.008203 0.119739 9.184006 -3.053353
1311875573.013499 0.227505 9.375588 -2.885718
1311875573.014939 0.395140 9.471380 -2.718082
1311875573.015931 0.395140 9.471380 -2.718082
1311875573.017186 0.395140 9.471380 -2.718082
1311875573.018178 0.395140 9.471380 -2.718082
1311875573.021432 0.323296 9.471380 -2.789926
1311875573.022429 0.323296 9.471380 -2.789926
1311875573.026097 0.323296 9.471380 -2.981509
1311875573.027057 0.323296 9.471380 -2.981509
1311875573.030328 0.119739 9.662963 -3.053353
1311875573.031331 0.119739 9.662963 -3.053353
1311875573.034567 0.023948 9.854546 -3.077300
1311875573.035564 0.023948 9.854546 -3.077300
1311875573.037193 0.023948 9.854546 -3.077300
1311875573.038192 0.023948 9.854546 -3.077300
1311875573.041478 -0.311322 10.046129 -3.077300
1311875573.042442 -0.311322 10.046129 -3.077300
1311875573.046075 -0.167635 10.237712 -2.981509
1311875573.047148 -0.167635 10.237712 -2.981509
1311875573.050200 -0.011974 10.429294 -3.029405
1311875573.051310 -0.011974 10.429294 -3.029405
1311875573.052835 -0.011974 10.429294 -3.029405
1311875573.053941 -0.011974 10.429294 -3.029405
1311875573.057235 -0.011974 10.620877 -3.077300
1311875573.058231 -0.011974 10.620877 -3.077300
1311875573.061459 -0.059870 10.716669 -3.077300
1311875573.062423 -0.059870 10.716669 -3.077300
1311875573.066063 0.023948 10.620877 -2.885718
1311875573.067063 0.023948 10.620877 -2.885718
1311875573.070329 0.227505 10.812460 -2.742030
1311875573.071317 0.227505 10.812460 -2.742030
1311875573.074564 0.407114 10.908252 -2.646239
1311875573.075569 0.407114 10.908252 -2.646239
1311875573.077232 0.407114 10.908252 -2.646239
1311875573.078210 0.407114 10.908252 -2.646239
1311875573.081461 0.502905 10.812460 -2.502552
1311875573.082449 0.502905 10.812460 -2.502552
1311875573.086062 0.502905 10.956147 -2.310969
1311875573.087053 0.502905 10.956147 -2.310969
1311875573.090338 0.407114 10.812460 -2.406760
1311875573.091312 0.407114 10.812460 -2.406760
1311875573.094956 0.323296 10.908252 -2.334917
1311875573.096056 0.323296 10.908252 -2.334917
1311875573.097075 0.323296 10.908252 -2.334917
1311875573.100327 0.227505 10.908252 -2.310969
1311875573.101332 0.227505 10.908252 -2.310969
1311875573.104979 0.227505 10.668773 -2.215177
1311875573.106066 0.227505 10.668773 -2.215177
1311875573.107068 0.227505 10.668773 -2.215177
1311875573.110315 0.023948 10.644825 -2.263073
1311875573.111304 0.023948 10.644825 -2.263073
1311875573.114943 -0.011974 10.525086 -1.832012
1311875573.116071 -0.011974 10.525086 -1.832012
1311875573.117177 -0.011974 10.525086 -1.832012
1311875573.118303 -0.011974 10.525086 -1.832012
1311875573.121476 -0.263426 10.189816 -1.353054
1311875573.122458 -0.263426 10.189816 -1.353054
1311875573.126076 -0.347244 10.189816 -1.161471
1311875573.127169 -0.347244 10.189816 -1.161471
1311875573.130343 -0.538827 10.237712 -1.113576
1311875573.131382 -0.538827 10.237712 -1.113576
1311875573.134916 -0.538827 10.429294 -0.969888
1311875573.135974 -0.538827 10.429294 -0.969888
1311875573.137061 -0.538827 10.429294 -0.969888
1311875573.140331 -0.538827 10.429294 -0.586723
1311875573.141355 -0.538827 10.429294 -0.586723
1311875573.144940 -0.359218 10.596929 -0.730410
1311875573.145922 -0.359218 10.596929 -0.730410
1311875573.147169 -0.359218 10.596929 -0.730410
1311875573.148308 -0.359218 10.596929 -0.730410
1311875573.151314 -0.359218 10.812460 -0.778306
1311875573.152458 -0.359218 10.812460 -0.778306
1311875573.155955 -0.347244 11.099835 -0.682514
1311875573.157048 -0.347244 11.099835 -0.682514
1311875573.160180 -0.347244 11.363261 -0.586723
1311875573.161175 -0.347244 11.363261 -0.586723
1311875573.162428 -0.347244 11.363261 -0.586723
1311875573.163429 -0.347244 11.363261 -0.586723
1311875573.167122 -0.167635 11.435105 -0.778306
1311875573.168200 -0.167635 11.435105 -0.778306
1311875573.171294 -0.167635 11.483000 -0.874097
1311875573.172407 -0.167635 11.483000 -0.874097
1311875573.175974 -0.167635 11.387209 -0.969888
1311875573.176969 -0.167635 11.387209 -0.969888
1311875573.180183 0.023948 11.291418 -1.113576
1311875573.181172 0.023948 11.291418 -1.113576
1311875573.182422 0.023948 11.291418 -1.113576
1311875573.183441 0.023948 11.291418 -1.113576
1311875573.187071 0.023948 11.004043 -1.065680
1311875573.188042 0.023948 11.004043 -1.065680
1311875573.191383 0.119739 10.716669 -1.065680
1311875573.192328 0.119739 10.716669 -1.065680
1311875573.195926 0.023948 10.620877 -1.161471
1311875573.197079 0.023948 10.620877 -1.161471
1311875573.198198 0.023948 10.620877 -1.161471
1311875573.201450 0.023948 10.429294 -0.969888
1311875573.202328 0.023948 10.429294 -0.969888
1311875573.205922 0.023948 10.261659 -1.065680
1311875573.206927 0.023948 10.261659 -1.065680
1311875573.210187 0.023948 10.141920 -1.065680
1311875573.211285 0.023948 10.141920 -1.065680
1311875573.212438 0.023948 10.141920 -1.065680
1311875573.213451 0.023948 10.141920 -1.065680
1311875573.217086 0.023948 9.806650 -1.161471
1311875573.218213 0.023948 9.806650 -1.161471
1311875573.221332 0.011974 9.662963 -1.353054
1311875573.222304 0.011974 9.662963 -1.353054
1311875573.225961 0.023948 9.471380 -1.448846
1311875573.226946 0.023948 9.471380 -1.448846
1311875573.230181 0.023948 9.471380 -1.544637
1311875573.231201 0.023948 9.471380 -1.544637
1311875573.232454 0.023948 9.471380 -1.544637
1311875573.233420 0.023948 9.471380 -1.544637
1311875573.237045 0.023948 9.471380 -1.736220
1311875573.238065 0.023948 9.471380 -1.736220
1311875573.241314 0.023948 9.471380 -1.903855
1311875573.242311 0.023948 9.471380 -1.903855
1311875573.245938 0.023948 9.471380 -1.832012
1311875573.246970 0.023948 9.471380 -1.832012
1311875573.250218 0.011974 9.662963 -1.879907
1311875573.251173 0.011974 9.662963 -1.879907
1311875573.252425 0.011974 9.662963 -1.879907
1311875573.253437 0.011974 9.662963 -1.879907
1311875573.257098 0.023948 9.662963 -1.592533
1311875573.258092 0.023948 9.662963 -1.592533
1311875573.261308 0.023948 9.519276 -1.448846
1311875573.262355 0.023948 9.519276 -1.448846
1311875573.265935 0.071844 9.495328 -1.448846
1311875573.266977 0.071844 9.495328 -1.448846
1311875573.268059 0.071844 9.495328 -1.448846
1311875573.271331 0.395140 9.471380 -1.161471
1311875573.272406 0.395140 9.471380 -1.161471
1311875573.275939 0.323296 9.459406 -1.113576
1311875573.276952 0.323296 9.459406 -1.113576
1311875573.280198 0.407114 9.471380 -0.969888
1311875573.281178 0.407114 9.471380 -0.969888
1311875573.282410 0.407114 9.471380 -0.969888
1311875573.283413 0.407114 9.471380 -0.969888
1311875573.287088 0.407114 9.662963 -1.113576
1311875573.288224 0.407114 9.662963 -1.113576
1311875573.291485 0.407114 9.806650 -1.161471
1311875573.292499 0.407114 9.806650 -1.161471
1311875573.295921 0.407114 9.662963 -1.353054
1311875573.296925 0.407114 9.662963 -1.353054
1311875573.300324 0.323296 9.830598 -1.544637
1311875573.301323 0.323296 9.830598 -1.544637
1311875573.302624 0.323296 9.830598 -1.544637
1311875573.303545 0.323296 9.830598 -1.544637
1311875573.307067 0.119739 9.854546 -1.556611
1311875573.308183 0.119739 9.854546 -1.556611
1311875573.311361 0.047896 9.866520 -1.544637
1311875573.312449 0.047896 9.866520 -1.544637
1311875573.315937 0.119739 9.758754 -1.556611
1311875573.316934 0.119739 9.758754 -1.556611
1311875573.320182 0.227505 9.854546 -1.544637
1311875573.321172 0.227505 9.854546 -1.544637
1311875573.322450 0.227505 9.854546 -1.544637
1311875573.323422 0.227505 9.854546 -1.544637
1311875573.327051 0.407114 9.662963 -1.592533
1311875573.328038 0.407114 9.662963 -1.592533
1311875573.331303 0.371192 9.471380 -1.448846
1311875573.332297 0.371192 9.471380 -1.448846
1311875573.335981 0.407114 9.471380 -1.353054
1311875573.336953 0.407114 9.471380 -1.353054
1311875573.340162 0.407114 9.375588 -1.544637
1311875573.341191 0.407114 9.375588 -1.544637
1311875573.342451 0.407114 9.375588 -1.544637
1311875573.343483 0.407114 9.375588 -1.544637
1311875573.347065 0.407114 9.088214 -1.544637
1311875573.348053 0.407114 9.088214 -1.544637
1311875573.351305 0.407114 9.088214 -1.592533
1311875573.352291 0.407114 9.088214 -1.592533
1311875573.355945 0.407114 8.752944 -1.832012
1311875573.356930 0.407114 8.752944 -1.832012
1311875573.360318 0.419088 8.705048 -2.023594
1311875573.361292 0.419088 8.705048 -2.023594
1311875573.362552 0.419088 8.705048 -2.023594
1311875573.363935 0.419088 8.705048 -2.023594
1311875573.367202 0.598697 8.705048 -2.310969
1311875573.368184 0.598697 8.705048 -2.310969
1311875573.371313 0.502905 8.800840 -2.310969
1311875573.372431 0.502905 8.800840 -2.310969
1311875573.376058 0.598697 8.752944 -2.502552
1311875573.377076 0.598697 8.752944 -2.502552
1311875573.380314 0.431062 8.896631 -2.646239
1311875573.381313 0.431062 8.896631 -2.646239
1311875573.384939 0.598697 8.896631 -2.502552
1311875573.385916 0.598697 8.896631 -2.502552
1311875573.387169 0.598697 8.896631 -2.502552
1311875573.388654 0.598697 8.896631 -2.502552
1311875573.391374 0.598697 9.040318 -2.646239
1311875573.392422 0.598697 9.040318 -2.646239
1311875573.396066 0.706462 9.064266 -2.694135
1311875573.397065 0.706462 9.064266 -2.694135
1311875573.400200 0.706462 9.088214 -2.694135
1311875573.401374 0.706462 9.088214 -2.694135
1311875573.402576 0.706462 9.088214 -2.694135
1311875573.403594 0.706462 9.088214 -2.694135
1311875573.407070 0.455009 9.279797 -2.502552
1311875573.408060 0.455009 9.279797 -2.502552
1311875573.411335 0.431062 9.375588 -2.406760
1311875573.412448 0.431062 9.375588 -2.406760
1311875573.415940 0.455009 9.375588 -2.406760
1311875573.416924 0.455009 9.375588 -2.406760
1311875573.420188 0.407114 9.375588 -2.215177
1311875573.421622 0.407114 9.375588 -2.215177
1311875573.422432 0.407114 9.375588 -2.215177
1311875573.423551 0.407114 9.375588 -2.215177
1311875573.427207 0.598697 9.279797 -1.927803
1311875573.428156 0.598697 9.279797 -1.927803
1311875573.431308 0.598697 9.136110 -1.927803
1311875573.432432 0.598697 9.136110 -1.927803
1311875573.435946 0.598697 9.184006 -1.736220
1311875573.437068 0.598697 9.184006 -1.736220
1311875573.440186 0.754358 9.088214 -1.544637
1311875573.441304 0.754358 9.088214 -1.544637
1311875573.442432 0.754358 9.088214 -1.544637
1311875573.443546 0.754358 9.088214 -1.544637
1311875573.447066 0.790279 8.896631 -1.592533
1311875573.448191 0.790279 8.896631 -1.592533
1311875573.453518 0.886071 8.992423 -1.832012
1311875573.455142 0.886071 8.800840 -1.736220
1311875573.455937 0.886071 8.800840 -1.736220
1311875573.456942 0.886071 8.800840 -1.736220
1311875573.460317 0.790279 8.752944 -1.832012
1311875573.461305 0.790279 8.752944 -1.832012
1311875573.464927 0.706462 8.705048 -1.736220
1311875573.466059 0.706462 8.705048 -1.736220
1311875573.467057 0.706462 8.705048 -1.736220
1311875573.470325 0.502905 8.693074 -1.736220
1311875573.471292 0.502905 8.693074 -1.736220
1311875573.474800 0.598697 8.609257 -1.832012
1311875573.475939 0.598697 8.609257 -1.832012
1311875573.477237 0.598697 8.609257 -1.832012
1311875573.478217 0.598697 8.609257 -1.832012
1311875573.481444 0.754358 8.513465 -1.903855
1311875573.482430 0.754358 8.513465 -1.903855
1311875573.486059 0.802253 8.321882 -1.927803
1311875573.487053 0.802253 8.321882 -1.927803
1311875573.490430 0.802253 8.513465 -1.975699
1311875573.491415 0.802253 8.513465 -1.975699
1311875573.494940 0.802253 8.513465 -2.023594
1311875573.495932 0.802253 8.513465 -2.023594
1311875573.497163 0.802253 8.513465 -2.023594
1311875573.498161 0.802253 8.513465 -2.023594
1311875573.501438 0.706462 8.705048 -2.023594
1311875573.502448 0.706462 8.705048 -2.023594
1311875573.505939 0.598697 8.705048 -1.927803
1311875573.507072 0.598697 8.705048 -1.927803
1311875573.510232 0.706462 8.752944 -1.879907
1311875573.511320 0.706462 8.752944 -1.879907
1311875573.512993 0.706462 8.752944 -1.879907
1311875573.516052 0.802253 8.752944 -1.568585
1311875573.517166 0.802253 8.752944 -1.568585
1311875573.520316 0.790279 8.896631 -1.353054
1311875573.521302 0.790279 8.896631 -1.353054
1311875573.524949 0.790279 8.800840 -1.448846
1311875573.525937 0.790279 8.800840 -1.448846
1311875573.527190 0.790279 8.800840 -1.448846
1311875573.528300 0.790279 8.800840 -1.448846
1311875573.531335 0.790279 8.728996 -1.353054
1311875573.532408 0.790279 8.728996 -1.353054
1311875573.536049 0.754358 8.800840 -1.209367
1311875573.537057 0.754358 8.800840 -1.209367
1311875573.540311 0.706462 8.717022 -0.969888
1311875573.541306 0.706462 8.717022 -0.969888
1311875573.542559 0.706462 8.717022 -0.969888
1311875573.543548 0.706462 8.717022 -0.969888
1311875573.547057 0.754358 8.705048 -1.113576
1311875573.548188 0.754358 8.705048 -1.113576
1311875573.551442 0.706462 8.513465 -0.969888
1311875573.552428 0.706462 8.513465 -0.969888
1311875573.556071 0.706462 8.513465 -0.874097
1311875573.557074 0.706462 8.513465 -0.874097
1311875573.560189 0.778306 8.309909 -1.113576
1311875573.561301 0.778306 8.309909 -1.113576
1311875573.562432 0.778306 8.309909 -1.113576
1311875573.563575 0.778306 8.309909 -1.113576
1311875573.567068 0.754358 8.297935 -1.113576
1311875573.568180 0.754358 8.297935 -1.113576
1311875573.571312 0.598697 8.226091 -0.969888
1311875573.572410 0.598697 8.226091 -0.969888
1311875573.576059 0.598697 8.226091 -1.161471
1311875573.577099 0.598697 8.226091 -1.161471
1311875573.580183 0.598697 8.321882 -1.161471
1311875573.581164 0.598697 8.321882 -1.161471
1311875573.582428 0.598697 8.321882 -1.161471
1311875573.583412 0.598697 8.321882 -1.161471
1311875573.587067 0.598697 8.321882 -1.137524
1311875573.588057 0.598697 8.321882 -1.137524
1311875573.591328 0.598697 8.417674 -1.353054
1311875573.592289 0.598697 8.417674 -1.353054
1311875573.595959 0.502905 8.417674 -1.353054
1311875573.596959 0.502905 8.417674 -1.353054
1311875573.600194 0.598697 8.513465 -1.544637
1311875573.601318 0.598697 8.513465 -1.544637
1311875573.602577 0.598697 8.513465 -1.544637
1311875573.603430 0.598697 8.513465 -1.544637
1311875573.607066 0.598697 8.513465 -1.448846
1311875573.608025 0.598697 8.513465 -1.448846
1311875573.611336 0.598697 8.705048 -1.544637
1311875573.612304 0.598697 8.705048 -1.544637
1311875573.615963 0.502905 8.800840 -1.496741
1311875573.616942 0.502905 8.800840 -1.496741
1311875573.620221 0.455009 8.896631 -1.736220
1311875573.621289 0.455009 8.896631 -1.736220
1311875573.622408 0.455009 8.896631 -1.736220
1311875573.623544 0.455009 8.896631 -1.736220
1311875573.627130 0.407114 9.064266 -1.496741
1311875573.628170 0.407114 9.064266 -1.496741
1311875573.631445 0.419088 9.088214 -1.209367
1311875573.632443 0.419088 9.088214 -1.209367
1311875573.636053 0.323296 9.088214 -1.209367
1311875573.637035 0.323296 9.088214 -1.209367
1311875573.640185 0.371192 9.088214 -1.185419
1311875573.641179 0.371192 9.088214 -1.185419
1311875573.642431 0.371192 9.088214 -1.185419
1311875573.643423 0.371192 9.088214 -1.185419
1311875573.647056 0.227505 9.088214 -1.113576
1311875573.648168 0.227505 9.088214 -1.113576
1311875573.651361 0.227505 8.992423 -0.969888
1311875573.652296 0.227505 8.992423 -0.969888
1311875573.655942 0.407114 8.992423 -0.874097
1311875573.657064 0.407114 8.992423 -0.874097
1311875573.658216 0.407114 8.992423 -0.874097
1311875573.661295 0.395140 8.800840 -0.778306
1311875573.662288 0.395140 8.800840 -0.778306
1311875573.665940 0.371192 8.800840 -0.778306
1311875573.666974 0.371192 8.800840 -0.778306
1311875573.667911 0.371192 8.800840 -0.778306
1311875573.671294 0.023948 8.800840 -0.778306
1311875573.672300 0.023948 8.800840 -0.778306
1311875573.675555 0.047896 8.717022 -0.682514
1311875573.676950 0.047896 8.717022 -0.682514
1311875573.680184 0.023948 8.800840 -0.754358
1311875573.681185 0.023948 8.800840 -0.754358
1311875573.682429 0.023948 8.800840 -0.754358
1311875573.683423 0.023948 8.800840 -0.754358
1311875573.686993 0.023948 8.752944 -0.778306
1311875573.688040 0.023948 8.752944 -0.778306
1311875573.691328 0.023948 8.896631 -0.969888
1311875573.692309 0.023948 8.896631 -0.969888
1311875573.695975 0.023948 9.064266 -0.969888
1311875573.697086 0.023948 9.064266 -0.969888
1311875573.698057 0.023948 9.064266 -0.969888
1311875573.701320 0.023948 9.136110 -1.161471
1311875573.702490 0.023948 9.136110 -1.161471
1311875573.705929 0.011974 9.423484 -1.149497
1311875573.706918 0.011974 9.423484 -1.149497
1311875573.710179 0.023948 9.519276 -1.209367
1311875573.711179 0.023948 9.519276 -1.209367
1311875573.712421 0.023948 9.519276 -1.209367
1311875573.713423 0.023948 9.519276 -1.209367
1311875573.717063 0.023948 9.662963 -1.544637
1311875573.718245 0.023948 9.662963 -1.544637
1311875573.721463 0.023948 9.758754 -1.832012
1311875573.722443 0.023948 9.758754 -1.832012
1311875573.726051 0.023948 9.854546 -1.927803
1311875573.727039 0.023948 9.854546 -1.927803
1311875573.730295 0.035922 9.854546 -1.927803
1311875573.731294 0.035922 9.854546 -1.927803
1311875573.734555 0.023948 9.902441 -1.927803
1311875573.735547 0.023948 9.902441 -1.927803
1311875573.737210 0.023948 9.902441 -1.927803
1311875573.738153 0.023948 9.902441 -1.927803
1311875573.741431 0.119739 9.866520 -1.975699
1311875573.742463 0.119739 9.866520 -1.975699
1311875573.746092 0.227505 9.842572 -1.736220
1311875573.747056 0.227505 9.842572 -1.736220
1311875573.750542 0.071844 9.854546 -1.736220
1311875573.751415 0.071844 9.854546 -1.736220
1311875573.752447 0.071844 9.854546 -1.736220
1311875573.756088 0.227505 9.662963 -1.832012
1311875573.757092 0.227505 9.662963 -1.832012
1311875573.760294 0.227505 9.567171 -1.640429
1311875573.761297 0.227505 9.567171 -1.640429
1311875573.764917 0.323296 9.471380 -1.736220
1311875573.765985 0.323296 9.471380 -1.736220
1311875573.767191 0.323296 9.471380 -1.736220
1311875573.768207 0.323296 9.471380 -1.736220
1311875573.771322 0.407114 9.423484 -1.736220
1311875573.772442 0.407114 9.423484 -1.736220
1311875573.775930 0.407114 9.279797 -1.736220
1311875573.777044 0.407114 9.279797 -1.736220
1311875573.780293 0.371192 9.375588 -1.927803
1311875573.781294 0.371192 9.375588 -1.927803
1311875573.782418 0.371192 9.375588 -1.927803
1311875573.783536 0.371192 9.375588 -1.927803
1311875573.787184 0.371192 9.184006 -1.927803
1311875573.788187 0.371192 9.184006 -1.927803
1311875573.791314 0.407114 9.279797 -2.023594
1311875573.792597 0.407114 9.279797 -2.023594
1311875573.796078 0.502905 9.279797 -2.119386
1311875573.797033 0.502905 9.279797 -2.119386
1311875573.800319 0.431062 9.279797 -2.119386
1311875573.801314 0.431062 9.279797 -2.119386
1311875573.804944 0.598697 9.279797 -2.310969
1311875573.805911 0.598697 9.279797 -2.310969
1311875573.807180 0.598697 9.279797 -2.310969
1311875573.808300 0.598697 9.279797 -2.310969
1311875573.811421 0.598697 9.279797 -2.119386
1311875573.812417 0.598697 9.279797 -2.119386
1311875573.816056 0.598697 9.279797 -2.023594
1311875573.817047 0.598697 9.279797 -2.023594
1311875573.820180 0.598697 9.279797 -1.927803
1311875573.821314 0.598697 9.279797 -1.927803
1311875573.822460 0.598697 9.279797 -1.927803
1311875573.823581 0.598697 9.279797 -1.927803
1311875573.827080 0.598697 9.279797 -1.832012
1311875573.828167 0.598697 9.279797 -1.832012
1311875573.831295 0.502905 9.279797 -1.927803
1311875573.832404 0.502905 9.279797 -1.927803
1311875573.835904 0.598697 9.136110 -1.832012
1311875573.836941 0.598697 9.136110 -1.832012
1311875573.840196 0.790279 9.088214 -1.832012
1311875573.841207 0.790279 9.088214 -1.832012
1311875573.842449 0.790279 9.088214 -1.832012
1311875573.843454 0.790279 9.088214 -1.832012
1311875573.847051 0.802253 8.992423 -1.544637
1311875573.848173 0.802253 8.992423 -1.544637
1311875573.851293 0.802253 8.992423 -1.832012
1311875573.852427 0.802253 8.992423 -1.832012
1311875573.855980 0.802253 8.896631 -1.736220
1311875573.856917 0.802253 8.896631 -1.736220
1311875573.860162 0.802253 8.992423 -1.640429
1311875573.861166 0.802253 8.992423 -1.640429
1311875573.862507 0.802253 8.992423 -1.640429
1311875573.863461 0.802253 8.992423 -1.640429
1311875573.867192 0.838175 9.088214 -1.736220
1311875573.868070 0.838175 9.088214 -1.736220
1311875573.871303 0.802253 9.088214 -1.903855
1311875573.872297 0.802253 9.088214 -1.903855
1311875573.875955 0.802253 9.088214 -2.119386
1311875573.876937 0.802253 9.088214 -2.119386
1311875573.883254 0.802253 9.100188 -2.215177
1311875573.884907 0.706462 9.184006 -2.263073
1311875573.886043 0.706462 9.184006 -2.263073
1311875573.887188 0.706462 9.184006 -2.263073
1311875573.890299 0.790279 9.112162 -2.119386
1311875573.891402 0.790279 9.112162 -2.119386
1311875573.894942 0.838175 9.112162 -2.119386
1311875573.895928 0.838175 9.112162 -2.119386
1311875573.897168 0.838175 9.112162 -2.119386
1311875573.898186 0.838175 9.112162 -2.119386
1311875573.901439 0.814227 9.088214 -1.939777
1311875573.902430 0.814227 9.088214 -1.939777
1311875573.906088 0.790279 9.088214 -1.903855
1311875573.907056 0.790279 9.088214 -1.903855
1311875573.910297 0.838175 9.088214 -1.832012
1311875573.911288 0.838175 9.088214 -1.832012
1311875573.914936 0.802253 9.088214 -1.736220
1311875573.916043 0.802253 9.088214 -1.736220
1311875573.917053 0.802253 9.088214 -1.736220
1311875573.920318 0.886071 9.088214 -1.544637
1311875573.921308 0.886071 9.088214 -1.544637
1311875573.924935 0.993836 9.088214 -1.544637
1311875573.926002 0.993836 9.088214 -1.544637
1311875573.926920 0.993836 9.088214 -1.544637
1311875573.930315 1.089628 9.088214 -1.544637
1311875573.931315 1.089628 9.088214 -1.544637
1311875573.932983 1.089628 9.088214 -1.544637
1311875573.936049 1.089628 9.088214 -1.544637
1311875573.937062 1.089628 9.088214 -1.544637
1311875573.940301 1.089628 9.279797 -1.544637
1311875573.941297 1.089628 9.279797 -1.544637
1311875573.942786 1.089628 9.279797 -1.544637
1311875573.946070 1.089628 9.471380 -1.640429
1311875573.947048 1.089628 9.471380 -1.640429
1311875573.950306 1.089628 9.471380 -1.592533
1311875573.951285 1.089628 9.471380 -1.592533
1311875573.954930 1.173445 9.471380 -1.640429
1311875573.955925 1.173445 9.471380 -1.640429
1311875573.956918 1.173445 9.471380 -1.640429
1311875573.960299 1.185419 9.471380 -1.832012
1311875573.961298 1.185419 9.471380 -1.832012
1311875573.964936 1.185419 9.471380 -1.736220
1311875573.965918 1.185419 9.471380 -1.736220
1311875573.967159 1.185419 9.471380 -1.736220
1311875573.968294 1.185419 9.471380 -1.736220
1311875573.971444 1.185419 9.471380 -1.927803
1311875573.972398 1.185419 9.471380 -1.927803
1311875573.976075 1.185419 9.459406 -1.879907
1311875573.977082 1.185419 9.459406 -1.879907
1311875573.980397 1.137524 9.375588 -1.915829
1311875573.981282 1.137524 9.375588 -1.915829
1311875573.982406 1.137524 9.375588 -1.915829
1311875573.983525 1.137524 9.375588 -1.915829
1311875573.987038 1.173445 9.375588 -1.832012
1311875573.988154 1.173445 9.375588 -1.832012
1311875573.991339 1.137524 9.279797 -1.556611
1311875573.992293 1.137524 9.279797 -1.556611
1311875573.995910 0.993836 9.375588 -1.640429
1311875573.996989 0.993836 9.375588 -1.640429
1311875574.000176 1.137524 9.423484 -1.353054
1311875574.001284 1.137524 9.423484 -1.353054
1311875574.002436 1.137524 9.423484 -1.353054
1311875574.003571 1.137524 9.423484 -1.353054
1311875574.007035 1.173445 9.184006 -1.161471
1311875574.008165 1.173445 9.184006 -1.161471
1311875574.011353 1.173445 9.136110 -0.969888
1311875574.012424 1.173445 9.136110 -0.969888
1311875574.016057 1.089628 9.136110 -0.778306
1311875574.017050 1.089628 9.136110 -0.778306
1311875574.020210 1.089628 9.088214 -0.682514
1311875574.021286 1.089628 9.088214 -0.682514
1311875574.022424 1.089628 9.088214 -0.682514
1311875574.023438 1.089628 9.088214 -0.682514
1311875574.027062 1.185419 9.064266 -0.586723
1311875574.028166 1.185419 9.064266 -0.586723
1311875574.031316 1.173445 9.088214 -0.443035
1311875574.032293 1.173445 9.088214 -0.443035
1311875574.035968 1.185419 9.088214 -0.730410
1311875574.036968 1.185419 9.088214 -0.730410
1311875574.040323 1.089628 9.088214 -0.299348
1311875574.041332 1.089628 9.088214 -0.299348
1311875574.042628 1.089628 9.088214 -0.299348
1311875574.043927 1.089628 9.088214 -0.299348
1311875574.047181 1.089628 9.088214 -0.443035
1311875574.048170 1.089628 9.088214 -0.443035
1311875574.051301 1.089628 8.992423 -0.443035
1311875574.052434 1.089628 8.992423 -0.443035
1311875574.055916 1.173445 8.992423 -0.490931
1311875574.056960 1.173445 8.992423 -0.490931
1311875574.060212 1.173445 9.040318 -0.586723
1311875574.061290 1.173445 9.040318 -0.586723
1311875574.062465 1.173445 9.040318 -0.586723
1311875574.063412 1.173445 9.040318 -0.586723
1311875574.067033 1.137524 9.088214 -0.395140
1311875574.068148 1.137524 9.088214 -0.395140
1311875574.071283 1.197393 9.064266 -0.395140
1311875574.072422 1.197393 9.064266 -0.395140
1311875574.075909 1.161471 8.992423 -0.347244
1311875574.077089 1.161471 8.992423 -0.347244
1311875574.080200 1.185419 8.992423 -0.395140
1311875574.081300 1.185419 8.992423 -0.395140
1311875574.082425 1.185419 8.992423 -0.395140
1311875574.083541 1.185419 8.992423 -0.395140
1311875574.087065 1.173445 8.992423 -0.203557
1311875574.088163 1.173445 8.992423 -0.203557
1311875574.091294 1.089628 9.040318 -0.299348
1311875574.092421 1.089628 9.040318 -0.299348
1311875574.095955 1.173445 8.800840 -0.059870
1311875574.096957 1.173445 8.800840 -0.059870
1311875574.100185 1.173445 8.896631 -0.203557
1311875574.101310 1.173445 8.896631 -0.203557
1311875574.102563 1.173445 8.896631 -0.203557
1311875574.103436 1.173445 8.896631 -0.203557
1311875574.107050 1.185419 8.800840 -0.011974
1311875574.108043 1.185419 8.800840 -0.011974
1311875574.111184 1.089628 8.896631 0.083818
1311875574.112296 1.089628 8.896631 0.083818
1311875574.115428 1.173445 8.800840 0.083818
1311875574.116920 1.173445 8.800840 0.083818
1311875574.120056 1.173445 8.717022 -0.011974
1311875574.121028 1.173445 8.717022 -0.011974
1311875574.122302 1.173445 8.717022 -0.011974
1311875574.123318 1.173445 8.717022 -0.011974
1311875574.126282 1.185419 8.728996 -0.011974
1311875574.127293 1.185419 8.728996 -0.011974
1311875574.130556 1.221341 8.728996 -0.011974
1311875574.131541 1.221341 8.728996 -0.011974
1311875574.135036 1.161471 8.752944 0.035922
1311875574.136024 1.161471 8.752944 0.035922
1311875574.137287 1.161471 8.752944 0.035922
1311875574.138277 1.161471 8.752944 0.035922
1311875574.141288 1.089628 8.800840 0.083818
1311875574.142453 1.089628 8.800840 0.083818
1311875574.145914 1.089628 8.705048 -0.011974
1311875574.146906 1.089628 8.705048 -0.011974
1311875574.150167 0.886071 8.800840 0.179609
1311875574.151172 0.886071 8.800840 0.179609
1311875574.152426 0.886071 8.800840 0.179609
1311875574.153412 0.886071 8.800840 0.179609
1311875574.157050 0.802253 8.992423 0.179609
1311875574.158072 0.802253 8.992423 0.179609
1311875574.161160 0.886071 8.896631 0.179609
1311875574.162304 0.886071 8.896631 0.179609
1311875574.165286 0.886071 8.992423 0.371192
1311875574.166276 0.886071 8.992423 0.371192
1311875574.169922 0.814227 9.076240 0.371192
1311875574.170901 0.814227 9.076240 0.371192
1311875574.172145 0.814227 9.076240 0.371192
1311875574.173146 0.814227 9.076240 0.371192
1311875574.176306 0.886071 9.088214 0.347244
1311875574.177474 0.886071 9.088214 0.347244
1311875574.180917 0.838175 9.088214 0.371192
1311875574.182026 0.838175 9.088214 0.371192
1311875574.185166 0.993836 9.184006 0.371192
1311875574.186287 0.993836 9.184006 0.371192
1311875574.187408 0.993836 9.184006 0.371192
1311875574.188544 0.993836 9.184006 0.371192
1311875574.192041 0.993836 9.375588 0.179609
1311875574.193029 0.993836 9.375588 0.179609
1311875574.196317 0.838175 9.423484 0.179609
1311875574.197286 0.838175 9.423484 0.179609
1311875574.200915 0.838175 9.471380 0.275400
1311875574.201917 0.838175 9.471380 0.275400
1311875574.205042 0.802253 9.662963 0.035922
1311875574.206175 0.802253 9.662963 0.035922
1311875574.207308 0.802253 9.662963 0.035922
1311875574.208432 0.802253 9.662963 0.035922
1311875574.211921 0.802253 9.662963 -0.059870
1311875574.212934 0.802253 9.662963 -0.059870
1311875574.216172 0.802253 9.519276 -0.203557
1311875574.217161 0.802253 9.519276 -0.203557
1311875574.220301 0.802253 9.662963 -0.203557
1311875574.221286 0.802253 9.662963 -0.203557
1311875574.222931 0.802253 9.662963 -0.203557
1311875574.226075 0.993836 9.567171 -0.203557
1311875574.227048 0.993836 9.567171 -0.203557
1311875574.230190 0.993836 9.495328 -0.203557
1311875574.231306 0.993836 9.495328 -0.203557
1311875574.232894 0.993836 9.495328 -0.203557
1311875574.236181 1.089628 9.519276 -0.395140
1311875574.237199 1.089628 9.519276 -0.395140
1311875574.240294 0.993836 9.662963 -0.371192
1311875574.241288 0.993836 9.662963 -0.371192
1311875574.244923 0.993836 9.758754 -0.443035
1311875574.245928 0.993836 9.758754 -0.443035
1311875574.247173 0.993836 9.758754 -0.443035
1311875574.248160 0.993836 9.758754 -0.443035
1311875574.253259 1.089628 9.758754 -0.443035
1311875574.255038 0.993836 9.662963 -0.586723
1311875574.255942 0.993836 9.662963 -0.586723
1311875574.257042 0.993836 9.662963 -0.586723
1311875574.260288 0.993836 9.662963 -0.490931
1311875574.261272 0.993836 9.662963 -0.490931
1311875574.264916 0.886071 9.662963 -0.383166
1311875574.265937 0.886071 9.662963 -0.383166
1311875574.267182 0.886071 9.662963 -0.383166
1311875574.268166 0.886071 9.662963 -0.383166
1311875574.271315 0.790279 9.854546 -0.299348
1311875574.272430 0.790279 9.854546 -0.299348
1311875574.275914 0.802253 9.758754 -0.299348
1311875574.276908 0.802253 9.758754 -0.299348
1311875574.280162 0.886071 9.830598 -0.023948
1311875574.281143 0.886071 9.830598 -0.023948
1311875574.282406 0.886071 9.830598 -0.023948
1311875574.283399 0.886071 9.830598 -0.023948
1311875574.286914 0.993836 9.854546 -0.011974
1311875574.288051 0.993836 9.854546 -0.011974
1311875574.291188 0.886071 9.854546 0.083818
1311875574.292290 0.886071 9.854546 0.083818
1311875574.295182 0.838175 9.854546 0.083818
1311875574.296313 0.838175 9.854546 0.083818
1311875574.297789 0.838175 9.854546 0.083818
1311875574.298939 0.838175 9.854546 0.083818
1311875574.302058 0.802253 9.902441 0.035922
1311875574.303055 0.802253 9.902441 0.035922
1311875574.306310 0.802253 10.046129 0.179609
1311875574.307291 0.802253 10.046129 0.179609
1311875574.310905 0.814227 9.902441 0.083818
1311875574.312035 0.814227 9.902441 0.083818
1311875574.313038 0.814227 9.902441 0.083818
1311875574.316308 0.814227 9.902441 0.371192
1311875574.317284 0.814227 9.902441 0.371192
1311875574.320928 0.886071 9.866520 0.179609
1311875574.321931 0.886071 9.866520 0.179609
1311875574.325044 0.886071 9.950337 0.179609
1311875574.326170 0.886071 9.950337 0.179609
1311875574.327292 0.886071 9.950337 0.179609
1311875574.328432 0.886071 9.950337 0.179609
1311875574.331909 0.993836 9.854546 -0.011974
1311875574.332895 0.993836 9.854546 -0.011974
1311875574.336169 0.993836 9.950337 -0.203557
1311875574.337158 0.993836 9.950337 -0.203557
1311875574.340296 0.993836 10.141920 -0.395140
1311875574.341277 0.993836 10.141920 -0.395140
1311875574.344986 0.993836 10.046129 -0.419088
1311875574.345957 0.993836 10.046129 -0.419088
1311875574.347173 0.993836 10.046129 -0.419088
1311875574.348165 0.993836 10.046129 -0.419088
1311875574.351295 1.185419 10.046129 -0.490931
1311875574.352416 1.185419 10.046129 -0.490931
1311875574.355906 1.185419 10.046129 -0.490931
1311875574.356908 1.185419 10.046129 -0.490931
1311875574.360307 1.365028 9.902441 -0.778306
1311875574.361326 1.365028 9.902441 -0.778306
1311875574.362592 1.365028 9.902441 -0.778306
1311875574.363908 1.365028 9.902441 -0.778306
1311875574.367173 1.269237 9.830598 -0.586723
1311875574.368152 1.269237 9.830598 -0.586723
1311875574.371394 1.269237 9.567171 -0.766332
1311875574.372386 1.269237 9.567171 -0.766332
1311875574.376043 1.365028 9.567171 -0.730410
1311875574.377037 1.365028 9.567171 -0.730410
1311875574.380169 1.365028 9.662963 -0.586723
1311875574.381313 1.365028 9.662963 -0.586723
1311875574.382424 1.365028 9.662963 -0.586723
1311875574.383550 1.365028 9.662963 -0.586723
1311875574.387035 1.556611 9.447432 -0.395140
1311875574.388156 1.556611 9.447432 -0.395140
1311875574.391445 1.556611 9.279797 -0.395140
1311875574.392427 1.556611 9.279797 -0.395140
1311875574.396062 1.556611 9.375588 -0.299348
1311875574.397056 1.556611 9.375588 -0.299348
1311875574.400175 1.760168 9.088214 -0.395140
1311875574.401304 1.760168 9.088214 -0.395140
1311875574.402429 1.760168 9.088214 -0.395140
1311875574.403541 1.760168 9.088214 -0.395140
1311875574.407059 1.652403 9.136110 -0.203557
1311875574.408156 1.652403 9.136110 -0.203557
1311875574.411311 1.760168 9.184006 -0.011974
1311875574.412300 1.760168 9.184006 -0.011974
1311875574.415540 1.760168 9.184006 -0.059870
1311875574.416905 1.760168 9.184006 -0.059870
1311875574.420036 1.855959 9.184006 -0.107765
1311875574.421159 1.855959 9.184006 -0.107765
1311875574.422274 1.855959 9.184006 -0.107765
1311875574.423398 1.855959 9.184006 -0.107765
1311875574.426910 1.903855 9.279797 -0.107765
1311875574.427904 1.903855 9.279797 -0.107765
1311875574.431159 1.760168 9.279797 -0.107765
1311875574.432157 1.760168 9.279797 -0.107765
1311875574.435157 1.604507 9.375588 -0.011974
1311875574.436267 1.604507 9.375588 -0.011974
1311875574.437559 1.604507 9.375588 -0.011974
1311875574.438535 1.604507 9.375588 -0.011974
1311875574.442022 1.760168 9.423484 -0.011974
1311875574.443020 1.760168 9.423484 -0.011974
1311875574.446177 1.760168 9.279797 0.035922
1311875574.447247 1.760168 9.279797 0.035922
1311875574.450199 1.760168 9.279797 0.179609
1311875574.451285 1.760168 9.279797 0.179609
1311875574.454545 1.855959 9.279797 0.275400
1311875574.455608 1.855959 9.279797 0.275400
1311875574.457195 1.855959 9.279797 0.275400
1311875574.458194 1.855959 9.279797 0.275400
1311875574.461305 1.855959 9.279797 0.323296
1311875574.462466 1.855959 9.279797 0.323296
1311875574.465975 1.951751 9.136110 -0.035922
1311875574.466969 1.951751 9.136110 -0.035922
1311875574.470039 1.951751 9.088214 -0.011974
1311875574.471169 1.951751 9.088214 -0.011974
1311875574.472413 1.951751 9.088214 -0.011974
1311875574.473415 1.951751 9.088214 -0.011974
1311875574.476919 1.903855 9.088214 -0.107765
1311875574.477917 1.903855 9.088214 -0.107765
1311875574.481165 1.760168 9.088214 -0.203557
1311875574.482277 1.760168 9.088214 -0.203557
1311875574.485279 1.760168 9.184006 -0.299348
1311875574.486290 1.760168 9.184006 -0.299348
1311875574.489904 1.604507 9.279797 -0.299348
1311875574.491040 1.604507 9.279797 -0.299348
1311875574.492020 1.604507 9.279797 -0.299348
1311875574.495311 1.556611 9.088214 -0.371192
1311875574.496306 1.556611 9.088214 -0.371192
1311875574.499926 1.652403 9.088214 -0.490931
1311875574.500934 1.652403 9.088214 -0.490931
1311875574.502178 1.652403 9.088214 -0.490931
1311875574.503178 1.652403 9.088214 -0.490931
1311875574.506295 1.652403 9.088214 -0.203557
1311875574.507415 1.652403 9.088214 -0.203557
1311875574.510910 1.760168 9.088214 -0.011974
1311875574.511898 1.760168 9.088214 -0.011974
1311875574.515184 1.760168 8.896631 0.179609
1311875574.516159 1.760168 8.896631 0.179609
1311875574.517472 1.760168 8.896631 0.179609
1311875574.518419 1.760168 8.896631 0.179609
1311875574.522037 1.760168 8.896631 0.275400
1311875574.523020 1.760168 8.896631 0.275400
1311875574.526291 1.760168 8.717022 0.371192
1311875574.527277 1.760168 8.717022 0.371192
1311875574.530915 1.760168 8.896631 0.371192
1311875574.531896 1.760168 8.896631 0.371192
1311875574.533017 1.760168 8.896631 0.371192
1311875574.536267 1.760168 8.705048 0.323296
1311875574.537304 1.760168 8.705048 0.323296
1311875574.540953 1.760168 8.800840 0.371192
1311875574.541912 1.760168 8.800840 0.371192
1311875574.542896 1.760168 8.800840 0.371192
1311875574.546312 1.760168 8.705048 0.371192
1311875574.547369 1.760168 8.705048 0.371192
1311875574.550920 1.556611 8.705048 0.371192
1311875574.552031 1.556611 8.705048 0.371192
1311875574.553024 1.556611 8.705048 0.371192
1311875574.556298 1.556611 8.609257 0.371192
1311875574.557276 1.556611 8.609257 0.371192
1311875574.560982 1.580559 8.705048 0.371192
1311875574.561898 1.580559 8.705048 0.371192
1311875574.565176 1.568585 8.705048 0.371192
1311875574.566161 1.568585 8.705048 0.371192
1311875574.567411 1.568585 8.705048 0.371192
1311875574.568534 1.568585 8.705048 0.371192
1311875574.572016 1.556611 8.705048 0.179609
1311875574.573023 1.556611 8.705048 0.179609
1311875574.576358 1.556611 8.705048 0.083818
1311875574.577283 1.556611 8.705048 0.083818
1311875574.580543 1.365028 8.752944 -0.011974
1311875574.581541 1.365028 8.752944 -0.011974
1311875574.585036 1.472794 8.896631 -0.011974
1311875574.586023 1.472794 8.896631 -0.011974
1311875574.587287 1.472794 8.896631 -0.011974
1311875574.588321 1.472794 8.896631 -0.011974
1311875574.591281 1.365028 9.040318 -0.059870
1311875574.592329 1.365028 9.040318 -0.059870
1311875574.595546 1.365028 9.088214 -0.011974
1311875574.596909 1.365028 9.088214 -0.011974
1311875574.600042 1.269237 9.088214 -0.011974
1311875574.601180 1.269237 9.088214 -0.011974
1311875574.602292 1.269237 9.088214 -0.011974
1311875574.603426 1.269237 9.088214 -0.011974
1311875574.606903 1.365028 9.088214 -0.011974
1311875574.607908 1.365028 9.088214 -0.011974
1311875574.608888 1.365028 9.088214 -0.011974
1311875574.612289 1.365028 9.088214 0.035922
1311875574.613303 1.365028 9.088214 0.035922
1311875574.616300 1.365028 9.088214 -0.011974
1311875574.617418 1.365028 9.088214 -0.011974
1311875574.620910 1.365028 9.088214 0.083818
1311875574.621918 1.365028 9.088214 0.083818
1311875574.625031 1.520689 9.088214 -0.011974
1311875574.626146 1.520689 9.088214 -0.011974
1311875574.627424 1.520689 9.088214 -0.011974
1311875574.628493 1.520689 9.088214 -0.011974
1311875574.631906 1.472794 9.088214 -0.203557
1311875574.633097 1.472794 9.088214 -0.203557
1311875574.636153 1.365028 9.088214 -0.203557
1311875574.637177 1.365028 9.088214 -0.203557
1311875574.640269 1.365028 9.040318 -0.395140
1311875574.641261 1.365028 9.040318 -0.395140
1311875574.644946 1.365028 8.992423 -0.586723
1311875574.645919 1.365028 8.992423 -0.586723
1311875574.647179 1.365028 8.992423 -0.586723
1311875574.648383 1.365028 8.992423 -0.586723
1311875574.651407 1.472794 9.136110 -0.766332
1311875574.652395 1.472794 9.136110 -0.766332
1311875574.656031 1.365028 9.088214 -0.586723
1311875574.657033 1.365028 9.088214 -0.586723
1311875574.660189 1.173445 9.088214 -0.586723
1311875574.661155 1.173445 9.088214 -0.586723
1311875574.662431 1.173445 9.088214 -0.586723
1311875574.663428 1.173445 9.088214 -0.586723
1311875574.667217 1.269237 9.088214 -0.586723
1311875574.668172 1.269237 9.088214 -0.586723
1311875574.671294 1.365028 9.184006 -0.682514
1311875574.672285 1.365028 9.184006 -0.682514
1311875574.675837 1.365028 9.136110 -0.682514
1311875574.677076 1.365028 9.136110 -0.682514
1311875574.678040 1.365028 9.136110 -0.682514
1311875574.681283 1.365028 9.112162 -0.586723
1311875574.682271 1.365028 9.112162 -0.586723
1311875574.688986 1.269237 9.136110 -0.443035
1311875574.689903 1.365028 9.112162 -0.395140
1311875574.690901 1.365028 9.112162 -0.395140
1311875574.692155 1.365028 9.112162 -0.395140
1311875574.693168 1.365028 9.112162 -0.395140
1311875574.696441 1.544637 9.088214 -0.419088
1311875574.697400 1.544637 9.088214 -0.419088
1311875574.701049 1.472794 9.088214 -0.395140
1311875574.702051 1.472794 9.088214 -0.395140
1311875574.705280 1.556611 9.088214 -0.682514
1311875574.706286 1.556611 9.088214 -0.682514
1311875574.709901 1.365028 9.088214 -0.443035
1311875574.710910 1.365028 9.088214 -0.443035
1311875574.712168 1.365028 9.088214 -0.443035
1311875574.713154 1.365028 9.088214 -0.443035
1311875574.716425 1.365028 9.088214 -0.395140
1311875574.717412 1.365028 9.088214 -0.395140
1311875574.721042 1.269237 9.100188 -0.490931
1311875574.722047 1.269237 9.100188 -0.490931
1311875574.725294 1.197393 9.136110 -0.395140
1311875574.726318 1.197393 9.136110 -0.395140
1311875574.729905 1.269237 9.184006 -0.395140
1311875574.730893 1.269237 9.184006 -0.395140
1311875574.732137 1.269237 9.184006 -0.395140
1311875574.733159 1.269237 9.184006 -0.395140
1311875574.736407 1.185419 9.088214 -0.395140
1311875574.737407 1.185419 9.088214 -0.395140
1311875574.741038 1.221341 9.184006 -0.407114
1311875574.742034 1.221341 9.184006 -0.407114
1311875574.745336 1.185419 9.279797 -0.490931
1311875574.746292 1.185419 9.279797 -0.490931
1311875574.747411 1.185419 9.279797 -0.490931
1311875574.748911 1.185419 9.279797 -0.490931
1311875574.752158 0.993836 9.662963 -0.490931
1311875574.753149 0.993836 9.662963 -0.490931
1311875574.756406 1.173445 9.758754 -0.395140
1311875574.757399 1.173445 9.758754 -0.395140
1311875574.761029 1.173445 9.854546 -0.395140
1311875574.762032 1.173445 9.854546 -0.395140
1311875574.765302 1.161471 9.950337 -0.299348
1311875574.766294 1.161471 9.950337 -0.299348
1311875574.769956 1.185419 9.878494 -0.203557
1311875574.770901 1.185419 9.878494 -0.203557
1311875574.772128 1.185419 9.878494 -0.203557
1311875574.773156 1.185419 9.878494 -0.203557
1311875574.776301 1.173445 9.950337 -0.059870
1311875574.777286 1.173445 9.950337 -0.059870
1311875574.780909 1.173445 9.854546 -0.107765
1311875574.781892 1.173445 9.854546 -0.107765
1311875574.785158 1.089628 9.854546 -0.011974
1311875574.789275 1.089628 9.854546 -0.011974
1311875574.790163 1.137524 9.758754 0.179609
1311875574.791155 1.137524 9.758754 0.179609
1311875574.792391 1.137524 9.758754 0.179609
1311875574.793411 1.137524 9.758754 0.179609
1311875574.796918 1.173445 9.471380 0.275400
1311875574.798048 1.173445 9.471380 0.275400
1311875574.801172 1.173445 9.375588 0.275400
1311875574.802282 1.173445 9.375588 0.275400
1311875574.805294 1.197393 9.279797 0.371192
1311875574.806301 1.197393 9.279797 0.371192
1311875574.809913 1.089628 9.279797 0.083818
1311875574.810894 1.089628 9.279797 0.083818
1311875574.812152 1.089628 9.279797 0.083818
1311875574.813167 1.089628 9.279797 0.083818
1311875574.816281 1.173445 9.088214 0.035922
1311875574.817272 1.173445 9.088214 0.035922
1311875574.820960 0.993836 9.136110 0.083818
1311875574.821906 0.993836 9.136110 0.083818
1311875574.825181 1.089628 9.279797 -0.011974
1311875574.826173 1.089628 9.279797 -0.011974
1311875574.827395 1.089628 9.279797 -0.011974
1311875574.828392 1.089628 9.279797 -0.011974
1311875574.831908 0.993836 9.375588 -0.011974
1311875574.832899 0.993836 9.375588 -0.011974
1311875574.836171 0.886071 9.471380 -0.059870
1311875574.837196 0.886071 9.471380 -0.059870
1311875574.840284 0.886071 9.471380 -0.107765
1311875574.841277 0.886071 9.471380 -0.107765
1311875574.842768 0.886071 9.471380 -0.107765
1311875574.843898 0.886071 9.471380 -0.107765
1311875574.847189 0.993836 9.459406 0.083818
1311875574.848166 0.993836 9.459406 0.083818
1311875574.851290 0.886071 9.471380 0.179609
1311875574.852401 0.886071 9.471380 0.179609
1311875574.856032 0.993836 9.495328 0.371192
1311875574.857020 0.993836 9.495328 0.371192
1311875574.860164 0.993836 9.483354 0.371192
1311875574.861286 0.993836 9.483354 0.371192
1311875574.862442 0.993836 9.483354 0.371192
1311875574.863423 0.993836 9.483354 0.371192
1311875574.867102 0.993836 9.423484 0.347244
1311875574.868042 0.993836 9.423484 0.347244
1311875574.871291 1.089628 9.471380 0.371192
1311875574.872279 1.089628 9.471380 0.371192
1311875574.875536 0.993836 9.519276 0.323296
1311875574.876938 0.993836 9.519276 0.323296
1311875574.880198 0.754358 9.471380 0.323296
1311875574.881149 0.754358 9.471380 0.323296
1311875574.882449 0.754358 9.471380 0.323296
1311875574.883408 0.754358 9.471380 0.323296
1311875574.886907 0.993836 9.519276 0.179609
1311875574.888011 0.993836 9.519276 0.179609
1311875574.891159 0.838175 9.662963 -0.011974
1311875574.892148 0.838175 9.662963 -0.011974
1311875574.895167 0.886071 9.662963 -0.011974
1311875574.896293 0.886071 9.662963 -0.011974
1311875574.897443 0.886071 9.662963 -0.011974
1311875574.898535 0.886071 9.662963 -0.011974
1311875574.902033 0.993836 9.662963 0.275400
1311875574.903184 0.993836 9.662963 0.275400
1311875574.906329 0.802253 9.567171 0.179609
1311875574.907299 0.802253 9.567171 0.179609
1311875574.910916 0.993836 9.471380 0.371192
1311875574.912049 0.993836 9.471380 0.371192
1311875574.915279 0.838175 9.471380 0.371192
1311875574.916266 0.838175 9.471380 0.371192
1311875574.919529 0.993836 9.447432 0.371192
1311875574.920894 0.993836 9.447432 0.371192
1311875574.922174 0.993836 9.447432 0.371192
1311875574.923169 0.993836 9.447432 0.371192
1311875574.926298 0.993836 9.375588 0.371192
1311875574.927444 0.993836 9.375588 0.371192
1311875574.930941 0.838175 9.471380 0.371192
1311875574.932044 0.838175 9.471380 0.371192
1311875574.935348 0.993836 9.423484 0.371192
1311875574.936299 0.993836 9.423484 0.371192
1311875574.939910 1.089628 9.375588 0.395140
1311875574.941030 1.089628 9.375588 0.395140
1311875574.942029 1.089628 9.375588 0.395140
1311875574.945301 1.089628 9.423484 0.371192
1311875574.946269 1.089628 9.423484 0.371192
1311875574.949910 0.993836 9.471380 0.275400
1311875574.950894 0.993836 9.471380 0.275400
1311875574.951888 0.993836 9.471380 0.275400
1311875574.955291 1.089628 9.423484 0.179609
1311875574.956283 1.089628 9.423484 0.179609
1311875574.959538 0.838175 9.471380 0.179609
1311875574.960912 0.838175 9.471380 0.179609
1311875574.962059 0.838175 9.471380 0.179609
1311875574.963183 0.838175 9.471380 0.179609
1311875574.966293 1.089628 9.459406 0.323296
1311875574.967420 1.089628 9.459406 0.323296
1311875574.970904 0.886071 9.471380 0.371192
1311875574.972030 0.886071 9.471380 0.371192
1311875574.975279 1.089628 9.519276 0.179609
1311875574.976285 1.089628 9.519276 0.179609
1311875574.977780 1.089628 9.519276 0.179609
1311875574.978912 1.089628 9.519276 0.179609
1311875574.982159 1.137524 9.423484 0.179609
1311875574.983145 1.137524 9.423484 0.179609
1311875574.986410 1.173445 9.471380 0.371192
1311875574.987394 1.173445 9.471380 0.371192
1311875574.990909 1.089628 9.423484 0.275400
1311875574.992074 1.089628 9.423484 0.275400
1311875574.995197 0.993836 9.375588 0.275400
1311875574.996286 0.993836 9.375588 0.275400
1311875574.997563 0.993836 9.375588 0.275400
1311875574.998890 0.993836 9.375588 0.275400
1311875575.001771 1.137524 9.279797 0.275400
1311875575.002889 1.137524 9.279797 0.275400
1311875575.006189 0.993836 9.423484 0.371192
1311875575.007156 0.993836 9.423484 0.371192
1311875575.010279 1.089628 9.279797 0.371192
1311875575.011269 1.089628 9.279797 0.371192
1311875575.014966 1.173445 9.279797 0.275400
1311875575.016032 1.173445 9.279797 0.275400
1311875575.017060 1.173445 9.279797 0.275400
1311875575.021712 1.137524 9.375588 0.011974
1311875575.024929 1.173445 9.447432 -0.107765
1311875575.026064 1.173445 9.447432 -0.107765
1311875575.027025 1.173445 9.447432 -0.107765
1311875575.030281 1.173445 9.519276 0.179609
1311875575.031291 1.173445 9.519276 0.179609
1311875575.032884 1.173445 9.519276 0.179609
1311875575.035415 1.161471 9.471380 -0.011974
1311875575.036403 1.161471 9.471380 -0.011974
1311875575.039909 1.089628 9.495328 -0.011974
1311875575.040901 1.089628 9.495328 -0.011974
1311875575.042154 1.089628 9.495328 -0.011974
1311875575.043152 1.089628 9.495328 -0.011974
1311875575.046293 1.185419 9.471380 0.035922
1311875575.047301 1.185419 9.471380 0.035922
1311875575.050406 1.221341 9.471380 -0.011974
1311875575.051518 1.221341 9.471380 -0.011974
1311875575.055039 1.185419 9.471380 -0.023948
1311875575.056148 1.185419 9.471380 -0.023948
1311875575.057280 1.185419 9.471380 -0.023948
1311875575.058277 1.185419 9.471380 -0.023948
1311875575.061274 1.221341 9.279797 0.035922
1311875575.062268 1.221341 9.279797 0.035922
1311875575.065933 1.185419 9.375588 0.083818
1311875575.066917 1.185419 9.375588 0.083818
1311875575.070169 1.269237 9.279797 -0.011974
1311875575.071173 1.269237 9.279797 -0.011974
1311875575.072420 1.269237 9.279797 -0.011974
1311875575.073378 1.269237 9.279797 -0.011974
1311875575.076907 1.472794 9.279797 -0.011974
1311875575.077927 1.472794 9.279797 -0.011974
1311875575.081144 1.544637 9.279797 -0.011974
1311875575.082169 1.544637 9.279797 -0.011974
1311875575.085291 1.365028 9.375588 -0.107765
1311875575.086271 1.365028 9.375588 -0.107765
1311875575.087922 1.365028 9.375588 -0.107765
1311875575.091016 1.365028 9.279797 -0.203557
1311875575.092038 1.365028 9.279797 -0.203557
1311875575.095132 1.185419 9.375588 -0.203557
1311875575.096292 1.185419 9.375588 -0.203557
1311875575.097916 1.185419 9.375588 -0.203557
1311875575.101040 1.197393 9.459406 -0.203557
1311875575.102042 1.197393 9.459406 -0.203557
1311875575.105290 1.221341 9.471380 -0.203557
1311875575.106305 1.221341 9.471380 -0.203557
1311875575.107885 1.221341 9.471380 -0.203557
1311875575.111094 1.365028 9.279797 -0.203557
1311875575.112030 1.365028 9.279797 -0.203557
1311875575.115162 1.269237 9.423484 -0.203557
1311875575.116269 1.269237 9.423484 -0.203557
1311875575.119911 1.365028 9.471380 -0.395140
1311875575.120893 1.365028 9.471380 -0.395140
1311875575.122158 1.365028 9.471380 -0.395140
1311875575.123154 1.365028 9.471380 -0.395140
1311875575.126426 1.556611 9.423484 -0.395140
1311875575.127477 1.556611 9.423484 -0.395140
1311875575.130922 1.556611 9.471380 -0.395140
1311875575.132038 1.556611 9.471380 -0.395140
1311875575.135299 1.556611 9.423484 -0.395140
1311875575.136286 1.556611 9.423484 -0.395140
1311875575.139912 1.520689 9.471380 -0.490931
1311875575.140908 1.520689 9.471380 -0.490931
1311875575.142157 1.520689 9.471380 -0.490931
1311875575.143167 1.520689 9.471380 -0.490931
1311875575.146279 1.520689 9.375588 -0.443035
1311875575.147290 1.520689 9.375588 -0.443035
1311875575.150952 1.556611 9.279797 -0.586723
1311875575.152007 1.556611 9.279797 -0.586723
1311875575.155168 1.556611 9.112162 -0.586723
1311875575.156202 1.556611 9.112162 -0.586723
1311875575.157393 1.556611 9.112162 -0.586723
1311875575.158413 1.556611 9.112162 -0.586723
1311875575.162029 1.556611 9.136110 -0.682514
1311875575.163018 1.556611 9.136110 -0.682514
1311875575.166272 1.556611 9.184006 -0.586723
1311875575.167263 1.556611 9.184006 -0.586723
1311875575.170897 1.568585 9.279797 -0.778306
1311875575.171926 1.568585 9.279797 -0.778306
1311875575.172904 1.568585 9.279797 -0.778306
1311875575.176346 1.568585 9.136110 -0.586723
1311875575.177277 1.568585 9.136110 -0.586723
1311875575.180921 1.556611 9.184006 -0.586723
1311875575.181916 1.556611 9.184006 -0.586723
1311875575.185146 1.556611 9.279797 -0.395140
1311875575.186303 1.556611 9.279797 -0.395140
1311875575.187403 1.556611 9.279797 -0.395140
1311875575.188528 1.556611 9.279797 -0.395140
1311875575.192018 1.556611 9.279797 -0.203557
1311875575.193210 1.556611 9.279797 -0.203557
1311875575.196286 1.520689 9.279797 -0.203557
1311875575.197403 1.520689 9.279797 -0.203557
1311875575.200894 1.556611 9.136110 -0.203557
1311875575.201900 1.556611 9.136110 -0.203557
1311875575.205154 1.472794 9.279797 -0.107765
1311875575.206180 1.472794 9.279797 -0.107765
1311875575.207410 1.472794 9.279797 -0.107765
1311875575.208520 1.472794 9.279797 -0.107765
1311875575.212029 1.472794 9.136110 -0.011974
1311875575.213023 1.472794 9.136110 -0.011974
1311875575.216156 1.221341 9.184006 -0.011974
1311875575.217260 1.221341 9.184006 -0.011974
1311875575.220273 1.365028 9.112162 0.083818
1311875575.221264 1.365028 9.112162 0.083818
1311875575.222529 1.365028 9.112162 0.083818
1311875575.223884 1.365028 9.112162 0.083818
1311875575.227019 1.365028 9.100188 0.083818
1311875575.228140 1.365028 9.100188 0.083818
1311875575.231273 1.365028 9.136110 0.275400
1311875575.232289 1.365028 9.136110 0.275400
1311875575.235957 1.365028 9.184006 0.083818
1311875575.237041 1.365028 9.184006 0.083818
1311875575.238024 1.365028 9.184006 0.083818
1311875575.241282 1.544637 9.184006 0.083818
1311875575.242274 1.544637 9.184006 0.083818
1311875575.245429 1.365028 9.375588 0.083818
1311875575.247392 1.365028 9.375588 0.083818
1311875575.250022 1.365028 9.471380 0.083818
1311875575.251019 1.365028 9.471380 0.083818
1311875575.252271 1.365028 9.471380 0.083818
1311875575.253391 1.365028 9.471380 0.083818
1311875575.256427 1.520689 9.471380 0.179609
1311875575.257386 1.520689 9.471380 0.179609
1311875575.260977 1.556611 9.471380 0.179609
1311875575.261879 1.556611 9.471380 0.179609
1311875575.265146 1.520689 9.471380 0.011974
1311875575.266288 1.520689 9.471380 0.011974
1311875575.267414 1.520689 9.471380 0.011974
1311875575.268422 1.520689 9.471380 0.011974
1311875575.272031 1.604507 9.375588 0.083818
1311875575.273031 1.604507 9.375588 0.083818
1311875575.276335 1.472794 9.423484 0.083818
1311875575.277285 1.472794 9.423484 0.083818
1311875575.280267 1.365028 9.184006 -0.011974
1311875575.281258 1.365028 9.184006 -0.011974
1311875575.282394 1.365028 9.184006 -0.011974
1311875575.283528 1.365028 9.184006 -0.011974
1311875575.287017 1.365028 9.088214 -0.107765
1311875575.288151 1.365028 9.088214 -0.107765
1311875575.291290 1.365028 9.088214 0.179609
1311875575.292412 1.365028 9.088214 0.179609
1311875575.295537 1.221341 9.088214 -0.023948
1311875575.296959 1.221341 9.088214 -0.023948
1311875575.300159 1.185419 9.184006 -0.011974
1311875575.301146 1.185419 9.184006 -0.011974
1311875575.302412 1.185419 9.184006 -0.011974
1311875575.303414 1.185419 9.184006 -0.011974
1311875575.306886 1.173445 9.088214 -0.011974
1311875575.307900 1.173445 9.088214 -0.011974
1311875575.311184 1.137524 9.136110 0.083818
1311875575.312139 1.137524 9.136110 0.083818
1311875575.315291 1.089628 9.136110 0.179609
1311875575.316310 1.089628 9.136110 0.179609
1311875575.319405 1.173445 9.279797 0.179609
1311875575.320885 1.173445 9.279797 0.179609
1311875575.322018 1.173445 9.279797 0.179609
1311875575.323148 1.173445 9.279797 0.179609
1311875575.326301 1.185419 9.471380 0.347244
1311875575.327399 1.185419 9.471380 0.347244
1311875575.330910 1.137524 9.471380 0.466983
1311875575.332084 1.137524 9.471380 0.466983
1311875575.335163 1.185419 9.471380 0.395140
1311875575.336272 1.185419 9.471380 0.395140
1311875575.337398 1.185419 9.471380 0.395140
1311875575.338400 1.185419 9.471380 0.395140
1311875575.342032 1.185419 9.567171 0.371192
1311875575.343022 1.185419 9.567171 0.371192
1311875575.346299 1.173445 9.662963 0.275400
1311875575.347358 1.173445 9.662963 0.275400
1311875575.350902 1.269237 9.567171 0.466983
1311875575.352052 1.269237 9.567171 0.466983
1311875575.353008 1.269237 9.567171 0.466983
1311875575.356575 1.185419 9.471380 0.419088
1311875575.357883 1.185419 9.471380 0.419088
1311875575.361030 1.365028 9.567171 0.371192
1311875575.362022 1.365028 9.567171 0.371192
1311875575.365285 1.269237 9.567171 0.179609
1311875575.366287 1.269237 9.567171 0.179609
1311875575.369880 1.365028 9.519276 0.371192
1311875575.371043 1.365028 9.519276 0.371192
1311875575.372034 1.365028 9.519276 0.371192
1311875575.375289 1.365028 9.483354 0.179609
1311875575.376320 1.365028 9.483354 0.179609
1311875575.379886 1.365028 9.471380 0.347244
1311875575.381009 1.365028 9.471380 0.347244
1311875575.382006 1.365028 9.471380 0.347244
1311875575.385294 1.137524 9.519276 0.179609
1311875575.386301 1.137524 9.519276 0.179609
1311875575.389910 1.185419 9.471380 0.275400
1311875575.390969 1.185419 9.471380 0.275400
1311875575.391872 1.185419 9.471380 0.275400
1311875575.395157 1.137524 9.495328 0.035922
1311875575.396281 1.137524 9.495328 0.035922
1311875575.397531 1.137524 9.495328 0.035922
1311875575.398608 1.137524 9.495328 0.035922
1311875575.402062 1.173445 9.471380 0.011974
1311875575.403062 1.173445 9.471380 0.011974
1311875575.406314 1.089628 9.662963 0.179609
1311875575.407268 1.089628 9.662963 0.179609
1311875575.410413 1.185419 9.519276 -0.011974
1311875575.411586 1.185419 9.519276 -0.011974
1311875575.415086 1.185419 9.471380 0.275400
1311875575.416148 1.185419 9.471380 0.275400
1311875575.417265 1.185419 9.471380 0.275400
1311875575.418498 1.185419 9.471380 0.275400
1311875575.421289 1.185419 9.471380 -0.035922
1311875575.422863 1.185419 9.471380 -0.035922
1311875575.425892 1.185419 9.471380 0.083818
1311875575.426901 1.185419 9.471380 0.083818
1311875575.430139 1.173445 9.471380 -0.011974
1311875575.431136 1.173445 9.471380 -0.011974
1311875575.432386 1.173445 9.471380 -0.011974
1311875575.433384 1.173445 9.471380 -0.011974
1311875575.436928 1.221341 9.471380 -0.059870
1311875575.437894 1.221341 9.471380 -0.059870
1311875575.441031 1.173445 9.471380 0.000000
1311875575.442023 1.173445 9.471380 0.000000
1311875575.445149 1.173445 9.471380 0.035922
1311875575.446926 1.173445 9.471380 0.035922
1311875575.449900 1.161471 9.471380 0.179609
1311875575.450887 1.161471 9.471380 0.179609
1311875575.452135 1.161471 9.471380 0.179609
1311875575.453131 1.161471 9.471380 0.179609
1311875575.456388 1.185419 9.471380 0.323296
1311875575.457400 1.185419 9.471380 0.323296
1311875575.461063 1.185419 9.447432 0.371192
1311875575.462043 1.185419 9.447432 0.371192
1311875575.465140 1.185419 9.184006 0.371192
1311875575.466285 1.185419 9.184006 0.371192
1311875575.467410 1.185419 9.184006 0.371192
1311875575.468903 1.185419 9.184006 0.371192
1311875575.471882 1.185419 9.184006 0.562775
1311875575.472899 1.185419 9.184006 0.562775
1311875575.476189 1.185419 9.279797 0.754358
1311875575.477159 1.185419 9.279797 0.754358
1311875575.480289 1.173445 9.279797 0.742384
1311875575.481264 1.173445 9.279797 0.742384
1311875575.482765 1.173445 9.279797 0.742384
1311875575.486024 1.185419 9.279797 0.742384
1311875575.487009 1.185419 9.279797 0.742384
1311875575.490644 1.089628 9.279797 0.419088
1311875575.491886 1.089628 9.279797 0.419088
1311875575.495012 1.089628 9.447432 0.658566
1311875575.495997 1.089628 9.447432 0.658566
1311875575.497257 1.089628 9.447432 0.658566
1311875575.498243 1.089628 9.447432 0.658566
1311875575.501384 1.185419 9.423484 0.658566
1311875575.502449 1.185419 9.423484 0.658566
1311875575.505915 1.221341 9.423484 0.658566
1311875575.506911 1.221341 9.423484 0.658566
1311875575.510180 1.269237 9.279797 0.562775
1311875575.511163 1.269237 9.279797 0.562775
1311875575.512394 1.269237 9.279797 0.562775
1311875575.513393 1.269237 9.279797 0.562775
1311875575.517029 1.221341 9.279797 0.562775
1311875575.517993 1.221341 9.279797 0.562775
1311875575.521303 1.269237 9.375588 0.395140
1311875575.522259 1.269237 9.375588 0.395140
1311875575.525888 1.365028 9.184006 0.562775
1311875575.526874 1.365028 9.184006 0.562775
1311875575.530128 1.185419 9.088214 0.275400
1311875575.531138 1.185419 9.088214 0.275400
1311875575.532410 1.185419 9.088214 0.275400
1311875575.533387 1.185419 9.088214 0.275400
1311875575.537018 1.161471 9.136110 0.371192
1311875575.538039 1.161471 9.136110 0.371192
1311875575.541256 1.137524 9.088214 0.371192
1311875575.542390 1.137524 9.088214 0.371192
1311875575.545898 1.173445 9.088214 0.419088
1311875575.547028 1.173445 9.088214 0.419088
1311875575.550181 1.089628 9.088214 0.419088
1311875575.551171 1.089628 9.088214 0.419088
1311875575.552379 1.089628 9.088214 0.419088
1311875575.553524 1.089628 9.088214 0.419088
1311875575.557041 1.185419 9.088214 0.371192
1311875575.558000 1.185419 9.088214 0.371192
1311875575.561285 1.185419 9.088214 0.371192
1311875575.562270 1.185419 9.088214 0.371192
1311875575.565923 1.185419 9.088214 0.562775
1311875575.566873 1.185419 9.088214 0.562775
1311875575.570204 1.185419 9.088214 0.562775
1311875575.571117 1.185419 9.088214 0.562775
1311875575.572390 1.185419 9.088214 0.562775
1311875575.573368 1.185419 9.088214 0.562775
1311875575.576894 1.185419 9.184006 0.466983
1311875575.578006 1.185419 9.184006 0.466983
1311875575.581143 0.993836 9.279797 0.562775
1311875575.582248 0.993836 9.279797 0.562775
1311875575.585266 1.089628 9.423484 0.466983
1311875575.586452 1.089628 9.423484 0.466983
1311875575.589900 0.993836 9.279797 0.395140
1311875575.591030 0.993836 9.279797 0.395140
1311875575.592037 0.993836 9.279797 0.395140
1311875575.595265 1.089628 9.447432 0.419088
1311875575.596277 1.089628 9.447432 0.419088
1311875575.599910 1.089628 9.471380 0.730410
1311875575.601043 1.089628 9.471380 0.730410
1311875575.602139 1.089628 9.471380 0.730410
1311875575.603140 1.089628 9.471380 0.730410
1311875575.606249 1.173445 9.471380 0.562775
1311875575.607363 1.173445 9.471380 0.562775
1311875575.610912 1.173445 9.495328 0.658566
1311875575.612041 1.173445 9.495328 0.658566
1311875575.615289 1.173445 9.519276 0.754358
1311875575.616265 1.173445 9.519276 0.754358
1311875575.617373 1.173445 9.519276 0.754358
1311875575.618611 1.173445 9.519276 0.754358
1311875575.622825 1.185419 9.423484 0.562775
1311875575.625145 1.173445 9.279797 0.754358
1311875575.626539 1.173445 9.279797 0.754358
1311875575.627405 1.173445 9.279797 0.754358
1311875575.628881 1.173445 9.279797 0.754358
1311875575.632010 1.089628 9.459406 0.658566
1311875575.633031 1.089628 9.459406 0.658566
1311875575.636264 1.173445 9.471380 0.562775
1311875575.637364 1.173445 9.471380 0.562775
1311875575.640884 0.993836 9.471380 0.562775
1311875575.641936 0.993836 9.471380 0.562775
1311875575.645152 0.802253 9.423484 0.466983
1311875575.646154 0.802253 9.423484 0.466983
1311875575.647398 0.802253 9.423484 0.466983
1311875575.648380 0.802253 9.423484 0.466983
1311875575.652016 0.802253 9.471380 0.562775
1311875575.653026 0.802253 9.471380 0.562775
1311875575.656308 0.802253 9.471380 0.562775
1311875575.657278 0.802253 9.471380 0.562775
1311875575.660304 0.993836 9.471380 0.562775
1311875575.661288 0.993836 9.471380 0.562775
1311875575.662899 0.993836 9.471380 0.562775
1311875575.666070 0.886071 9.567171 0.562775
1311875575.667003 0.886071 9.567171 0.562775
1311875575.670113 0.993836 9.471380 0.562775
1311875575.671269 0.993836 9.471380 0.562775
1311875575.672783 0.993836 9.471380 0.562775
1311875575.673960 0.993836 9.471380 0.562775
1311875575.677153 1.089628 9.471380 0.562775
1311875575.678134 1.089628 9.471380 0.562775
1311875575.681435 0.993836 9.471380 0.754358
1311875575.682441 0.993836 9.471380 0.754358
1311875575.685880 0.802253 9.471380 0.754358
1311875575.686881 0.802253 9.471380 0.754358
1311875575.690132 0.886071 9.447432 0.706462
1311875575.691184 0.886071 9.447432 0.706462
1311875575.692402 0.886071 9.447432 0.706462
1311875575.693394 0.886071 9.447432 0.706462
1311875575.697037 0.993836 9.423484 0.754358
1311875575.698016 0.993836 9.423484 0.754358
1311875575.701260 0.993836 9.375588 0.754358
1311875575.702260 0.993836 9.375588 0.754358
1311875575.705401 1.173445 9.471380 0.754358
1311875575.706538 1.173445 9.471380 0.754358
1311875575.710030 0.993836 9.662963 0.850149
1311875575.711032 0.993836 9.662963 0.850149
1311875575.712445 0.993836 9.662963 0.850149
1311875575.713424 0.993836 9.662963 0.850149
1311875575.716901 0.802253 9.854546 0.754358
1311875575.717876 0.802253 9.854546 0.754358
1311875575.721130 0.802253 9.950337 0.562775
1311875575.722264 0.802253 9.950337 0.562775
1311875575.725289 0.802253 10.189816 0.658566
1311875575.726245 0.802253 10.189816 0.658566
1311875575.729940 0.802253 10.141920 0.466983
1311875575.730908 0.802253 10.141920 0.466983
1311875575.732141 0.802253 10.141920 0.466983
1311875575.733118 0.802253 10.141920 0.466983
1311875575.736459 0.993836 10.046129 0.754358
1311875575.737380 0.993836 10.046129 0.754358
1311875575.740907 0.993836 10.046129 0.754358
1311875575.742016 0.993836 10.046129 0.754358
1311875575.745158 1.173445 9.854546 0.766332
1311875575.746175 1.173445 9.854546 0.766332
1311875575.747442 1.173445 9.854546 0.766332
1311875575.748513 1.173445 9.854546 0.766332
1311875575.752014 1.173445 9.758754 0.754358
1311875575.752994 1.173445 9.758754 0.754358
1311875575.756270 1.173445 9.662963 0.754358
1311875575.757525 1.173445 9.662963 0.754358
1311875575.760941 1.221341 9.471380 0.562775
1311875575.761884 1.221341 9.471380 0.562775
1311875575.762873 1.221341 9.471380 0.562775
1311875575.766293 1.185419 9.519276 0.371192
1311875575.767269 1.185419 9.519276 0.371192
1311875575.770866 1.185419 9.471380 0.419088
1311875575.771900 1.185419 9.471380 0.419088
1311875575.772886 1.185419 9.471380 0.419088
1311875575.776282 1.137524 9.471380 0.371192
1311875575.777262 1.137524 9.471380 0.371192
1311875575.780889 1.137524 9.279797 0.371192
1311875575.781875 1.137524 9.279797 0.371192
1311875575.785137 1.185419 9.279797 0.371192
1311875575.786129 1.185419 9.279797 0.371192
1311875575.787400 1.185419 9.279797 0.371192
1311875575.788385 1.185419 9.279797 0.371192
1311875575.792020 1.185419 9.088214 0.347244
1311875575.793010 1.185419 9.088214 0.347244
1311875575.796247 1.173445 9.136110 0.562775
1311875575.797248 1.173445 9.136110 0.562775
1311875575.800878 1.185419 9.088214 0.383166
1311875575.801902 1.185419 9.088214 0.383166
1311875575.805202 1.185419 9.088214 0.658566
1311875575.806122 1.185419 9.088214 0.658566
1311875575.807366 1.185419 9.088214 0.658566
1311875575.808482 1.185419 9.088214 0.658566
1311875575.812036 1.269237 8.992423 0.754358
1311875575.813012 1.269237 8.992423 0.754358
1311875575.816255 1.365028 9.040318 0.706462
1311875575.817245 1.365028 9.040318 0.706462
1311875575.820884 1.269237 9.076240 0.658566
1311875575.822053 1.269237 9.076240 0.658566
1311875575.823012 1.269237 9.076240 0.658566
1311875575.826291 1.197393 9.040318 0.754358
1311875575.827272 1.197393 9.040318 0.754358
1311875575.830863 1.185419 9.088214 0.945941
1311875575.831966 1.185419 9.088214 0.945941
1311875575.832876 1.185419 9.088214 0.945941
1311875575.836264 1.173445 9.136110 0.850149
1311875575.837278 1.173445 9.136110 0.850149
1311875575.840783 1.185419 9.279797 0.850149
1311875575.842011 1.185419 9.279797 0.850149
1311875575.843029 1.185419 9.279797 0.850149
1311875575.846365 1.221341 9.279797 1.041732
1311875575.847273 1.221341 9.279797 1.041732
1311875575.850882 1.365028 9.279797 1.125550
1311875575.851992 1.365028 9.279797 1.125550
1311875575.853000 1.365028 9.279797 1.125550
1311875575.856260 1.472794 9.375588 1.137524
1311875575.857275 1.472794 9.375588 1.137524
1311875575.860900 1.556611 9.279797 1.233315
1311875575.862010 1.556611 9.279797 1.233315
1311875575.863006 1.556611 9.279797 1.233315
1311875575.866271 1.556611 9.184006 1.137524
1311875575.867264 1.556611 9.184006 1.137524
1311875575.870579 1.472794 9.088214 1.113576
1311875575.871497 1.472794 9.088214 1.113576
1311875575.875006 1.472794 9.088214 0.945941
1311875575.876162 1.472794 9.088214 0.945941
1311875575.877398 1.472794 9.088214 0.945941
1311875575.878446 1.472794 9.088214 0.945941
1311875575.881882 1.365028 9.088214 0.945941
1311875575.882993 1.365028 9.088214 0.945941
1311875575.886135 1.365028 9.040318 0.850149
1311875575.887256 1.365028 9.040318 0.850149
1311875575.890529 1.269237 9.040318 1.041732
1311875575.891875 1.269237 9.040318 1.041732
1311875575.894999 1.365028 8.992423 1.089628
1311875575.896149 1.365028 8.992423 1.089628
1311875575.897369 1.365028 8.992423 1.089628
1311875575.898391 1.365028 8.992423 1.089628
1311875575.901948 1.472794 8.800840 0.945941
1311875575.902916 1.472794 8.800840 0.945941
1311875575.906148 1.365028 8.800840 1.041732
1311875575.907160 1.365028 8.800840 1.041732
1311875575.910249 1.472794 8.705048 1.137524
1311875575.911266 1.472794 8.705048 1.137524
1311875575.914390 1.365028 8.705048 1.041732
1311875575.915533 1.365028 8.705048 1.041732
1311875575.917009 1.365028 8.705048 1.041732
1311875575.918133 1.365028 8.705048 1.041732
1311875575.921275 1.556611 8.657153 1.137524
1311875575.922297 1.556611 8.657153 1.137524
1311875575.925877 1.556611 8.513465 1.233315
1311875575.926874 1.556611 8.513465 1.233315
1311875575.930139 1.472794 8.513465 1.233315
1311875575.931151 1.472794 8.513465 1.233315
1311875575.932400 1.472794 8.513465 1.233315
1311875575.933632 1.472794 8.513465 1.233315
1311875575.936923 1.520689 8.513465 1.137524
1311875575.938010 1.520689 8.513465 1.137524
1311875575.941140 1.472794 8.513465 1.137524
1311875575.942133 1.472794 8.513465 1.137524
1311875575.945343 1.365028 8.513465 1.137524
1311875575.946488 1.365028 8.513465 1.137524
1311875575.947400 1.365028 8.513465 1.137524
1311875575.951020 1.221341 8.717022 1.424898
1311875575.952001 1.221341 8.717022 1.424898
1311875575.955250 1.185419 8.705048 1.329106
1311875575.956249 1.185419 8.705048 1.329106
1311875575.959383 1.185419 8.705048 1.329106
1311875575.960866 1.185419 8.705048 1.329106
1311875575.961994 1.185419 8.705048 1.329106
1311875575.963114 1.185419 8.705048 1.329106
1311875575.966248 1.173445 8.896631 1.329106
1311875575.967252 1.173445 8.896631 1.329106
1311875575.970860 1.185419 8.896631 1.472794
1311875575.971996 1.185419 8.896631 1.472794
1311875575.975157 1.197393 8.896631 1.520689
1311875575.976149 1.197393 8.896631 1.520689
1311875575.977392 1.197393 8.896631 1.520689
1311875575.978434 1.197393 8.896631 1.520689
1311875575.982014 1.221341 9.088214 1.520689
1311875575.983006 1.221341 9.088214 1.520689
1311875575.986269 1.269237 9.088214 1.520689
1311875575.987543 1.269237 9.088214 1.520689
1311875575.990506 1.185419 9.088214 1.424898
1311875575.991514 1.185419 9.088214 1.424898
1311875575.994993 1.185419 9.100188 1.329106
1311875575.996197 1.185419 9.100188 1.329106
1311875575.997448 1.185419 9.100188 1.329106
1311875575.998398 1.185419 9.100188 1.329106
1311875576.001889 1.173445 9.279797 1.233315
1311875576.002881 1.173445 9.279797 1.233315
1311875576.006138 1.269237 9.279797 1.137524
1311875576.007112 1.269237 9.279797 1.137524
1311875576.010259 1.221341 9.279797 0.945941
1311875576.011303 1.221341 9.279797 0.945941
1311875576.014470 1.269237 9.279797 1.089628
1311875576.015624 1.269237 9.279797 1.089628
1311875576.017009 1.269237 9.279797 1.089628
1311875576.018131 1.269237 9.279797 1.089628
1311875576.021259 1.365028 9.184006 0.945941
1311875576.022420 1.365028 9.184006 0.945941
1311875576.025919 1.173445 9.088214 0.754358
1311875576.027008 1.173445 9.088214 0.754358
1311875576.030125 1.173445 9.088214 0.754358
1311875576.031132 1.173445 9.088214 0.754358
1311875576.032511 1.173445 9.088214 0.754358
1311875576.033490 1.173445 9.088214 0.754358
1311875576.037161 1.137524 9.136110 0.945941
1311875576.038138 1.137524 9.136110 0.945941
1311875576.041307 1.137524 9.136110 0.945941
1311875576.042480 1.137524 9.136110 0.945941
1311875576.045891 1.197393 9.088214 1.041732
1311875576.046887 1.197393 9.088214 1.041732
1311875576.050126 1.173445 9.088214 1.041732
1311875576.051155 1.173445 9.088214 1.041732
1311875576.052401 1.173445 9.088214 1.041732
1311875576.053382 1.173445 9.088214 1.041732
1311875576.056996 1.137524 9.088214 1.137524
1311875576.057995 1.137524 9.088214 1.137524
1311875576.061270 1.173445 8.992423 1.329106
1311875576.062264 1.173445 8.992423 1.329106
1311875576.065940 1.089628 9.040318 1.233315
1311875576.066886 1.089628 9.040318 1.233315
1311875576.070149 0.993836 9.088214 1.329106
1311875576.071149 0.993836 9.088214 1.329106
1311875576.072399 0.993836 9.088214 1.329106
1311875576.073396 0.993836 9.088214 1.329106
1311875576.077018 1.089628 9.040318 1.472794
1311875576.078011 1.089628 9.040318 1.472794
1311875576.081266 1.137524 9.076240 1.329106
1311875576.082245 1.137524 9.076240 1.329106
1311875576.085878 0.886071 9.088214 1.472794
1311875576.086973 0.886071 9.088214 1.472794
1311875576.090166 0.993836 9.088214 1.329106
1311875576.091123 0.993836 9.088214 1.329106
1311875576.092400 0.993836 9.088214 1.329106
1311875576.093367 0.993836 9.088214 1.329106
1311875576.097007 0.838175 9.136110 1.329106
1311875576.098010 0.838175 9.136110 1.329106
1311875576.101257 0.886071 9.088214 1.329106
1311875576.102259 0.886071 9.088214 1.329106
1311875576.105261 0.993836 9.184006 1.233315
1311875576.106273 0.993836 9.184006 1.233315
1311875576.109816 0.993836 9.279797 1.329106
1311875576.111015 0.993836 9.279797 1.329106
1311875576.112013 0.993836 9.279797 1.329106
1311875576.115266 0.993836 9.423484 1.233315
1311875576.116240 0.993836 9.423484 1.233315
1311875576.119543 0.886071 9.471380 1.185419
1311875576.120910 0.886071 9.471380 1.185419
1311875576.125033 0.886071 9.471380 1.185419
1311875576.125877 0.993836 9.375588 1.137524
1311875576.126878 0.993836 9.375588 1.137524
1311875576.130194 0.814227 9.375588 1.137524
1311875576.131123 0.814227 9.375588 1.137524
1311875576.132398 0.814227 9.375588 1.137524
1311875576.133371 0.814227 9.375588 1.137524
1311875576.136867 0.993836 9.471380 1.137524
1311875576.138005 0.993836 9.471380 1.137524
1311875576.141135 0.838175 9.471380 1.185419
1311875576.142256 0.838175 9.471380 1.185419
1311875576.145348 0.993836 9.375588 1.113576
1311875576.146306 0.993836 9.375588 1.113576
1311875576.149884 0.993836 9.279797 1.041732
1311875576.150992 0.993836 9.279797 1.041732
1311875576.151989 0.993836 9.279797 1.041732
1311875576.155274 0.886071 9.423484 0.945941
1311875576.156267 0.886071 9.423484 0.945941
1311875576.159375 0.886071 9.423484 0.945941
1311875576.160955 0.886071 9.423484 0.945941
1311875576.161987 0.886071 9.423484 0.945941
1311875576.163117 0.886071 9.423484 0.945941
1311875576.166250 0.886071 9.375588 0.945941
1311875576.167298 0.886071 9.375588 0.945941
1311875576.170910 0.838175 9.279797 1.041732
1311875576.171994 0.838175 9.279797 1.041732
1311875576.175111 0.838175 9.279797 1.041732
1311875576.176226 0.838175 9.279797 1.041732
1311875576.177389 0.838175 9.279797 1.041732
1311875576.178568 0.838175 9.279797 1.041732
1311875576.182008 0.814227 9.279797 1.041732
1311875576.182990 0.814227 9.279797 1.041732
1311875576.186323 0.802253 9.184006 1.041732
1311875576.187365 0.802253 9.184006 1.041732
1311875576.190881 0.802253 9.279797 1.149497
1311875576.192040 0.802253 9.279797 1.149497
1311875576.195147 0.790279 9.279797 1.329106
1311875576.196234 0.790279 9.279797 1.329106
1311875576.197368 0.790279 9.279797 1.329106
1311875576.198494 0.790279 9.279797 1.329106
1311875576.202020 0.886071 9.279797 1.329106
1311875576.203019 0.886071 9.279797 1.329106
1311875576.206267 0.838175 9.375588 1.329106
1311875576.207253 0.838175 9.375588 1.329106
1311875576.210503 0.802253 9.375588 1.520689
1311875576.211511 0.802253 9.375588 1.520689
1311875576.215042 0.802253 9.375588 1.424898
1311875576.216130 0.802253 9.375588 1.424898
1311875576.217371 0.802253 9.375588 1.424898
1311875576.218359 0.802253 9.375588 1.424898
1311875576.222039 0.838175 9.279797 1.520689
1311875576.222992 0.838175 9.279797 1.520689
1311875576.226279 0.886071 9.184006 1.424898
1311875576.227396 0.886071 9.184006 1.424898
1311875576.230518 0.802253 9.279797 1.424898
1311875576.231518 0.802253 9.279797 1.424898
1311875576.235177 0.802253 9.447432 1.329106
1311875576.236119 0.802253 9.447432 1.329106
1311875576.237396 0.802253 9.447432 1.329106
1311875576.238380 0.802253 9.447432 1.329106
1311875576.242008 0.838175 9.423484 1.137524
1311875576.243035 0.838175 9.423484 1.137524
1311875576.246140 0.838175 9.375588 1.149497
1311875576.247257 0.838175 9.375588 1.149497
1311875576.250500 0.993836 9.471380 1.089628
1311875576.251865 0.993836 9.471380 1.089628
1311875576.255008 0.886071 9.375588 0.850149
1311875576.256117 0.886071 9.375588 0.850149
1311875576.257398 0.886071 9.375588 0.850149
1311875576.258387 0.886071 9.375588 0.850149
1311875576.261878 0.993836 9.279797 0.754358
1311875576.263013 0.993836 9.279797 0.754358
1311875576.266144 0.993836 9.447432 0.754358
1311875576.267136 0.993836 9.447432 0.754358
1311875576.270274 1.137524 9.375588 0.706462
1311875576.271286 1.137524 9.375588 0.706462
1311875576.274489 0.993836 9.279797 0.754358
1311875576.275512 0.993836 9.279797 0.754358
1311875576.277134 0.993836 9.279797 0.754358
1311875576.278111 0.993836 9.279797 0.754358
1311875576.281409 0.993836 9.375588 0.706462
1311875576.282417 0.993836 9.375588 0.706462
1311875576.285873 0.993836 9.375588 0.754358
1311875576.286859 0.993836 9.375588 0.754358
1311875576.290137 0.993836 9.279797 0.754358
1311875576.291136 0.993836 9.279797 0.754358
1311875576.292389 0.993836 9.279797 0.754358
1311875576.293389 0.993836 9.279797 0.754358
1311875576.297003 0.993836 9.279797 0.945941
1311875576.298062 0.993836 9.279797 0.945941
1311875576.301304 0.993836 9.279797 1.041732
1311875576.302255 0.993836 9.279797 1.041732
1311875576.305876 0.886071 9.279797 1.233315
1311875576.306852 0.886071 9.279797 1.233315
1311875576.310170 0.838175 9.279797 1.520689
1311875576.311175 0.838175 9.279797 1.520689
1311875576.312386 0.838175 9.279797 1.520689
1311875576.313518 0.838175 9.279797 1.520689
1311875576.316998 1.161471 9.279797 1.508715
1311875576.318052 1.161471 9.279797 1.508715
1311875576.321297 1.137524 9.471380 1.329106
1311875576.322265 1.137524 9.471380 1.329106
1311875576.325890 1.089628 9.471380 1.520689
1311875576.326912 1.089628 9.471380 1.520689
1311875576.330145 1.185419 9.375588 1.520689
1311875576.331121 1.185419 9.375588 1.520689
1311875576.332369 1.185419 9.375588 1.520689
1311875576.333539 1.185419 9.375588 1.520689
1311875576.337020 1.173445 9.375588 1.520689
1311875576.338019 1.173445 9.375588 1.520689
1311875576.341292 1.185419 9.375588 1.520689
1311875576.342339 1.185419 9.375588 1.520689
1311875576.345262 1.185419 9.375588 1.472794
1311875576.346238 1.185419 9.375588 1.472794
1311875576.347863 1.185419 9.375588 1.472794
1311875576.350990 1.185419 9.375588 1.424898
1311875576.351984 1.185419 9.375588 1.424898
1311875576.355262 1.365028 9.279797 1.329106
1311875576.356302 1.365028 9.279797 1.329106
1311875576.359371 1.269237 9.279797 1.329106
1311875576.360857 1.269237 9.279797 1.329106
1311875576.361983 1.269237 9.279797 1.329106
1311875576.363137 1.269237 9.279797 1.329106
1311875576.366271 1.520689 9.279797 1.185419
1311875576.367397 1.520689 9.279797 1.185419
1311875576.370878 1.520689 9.279797 1.113576
1311875576.371999 1.520689 9.279797 1.113576
1311875576.375151 1.365028 9.279797 0.945941
1311875576.376138 1.365028 9.279797 0.945941
1311875576.377469 1.365028 9.279797 0.945941
1311875576.378396 1.365028 9.279797 0.945941
1311875576.382023 1.365028 9.279797 0.754358
1311875576.382982 1.365028 9.279797 0.754358
1311875576.386269 1.365028 9.279797 0.658566
1311875576.387243 1.365028 9.279797 0.658566
1311875576.390872 1.269237 9.279797 0.742384
1311875576.391885 1.269237 9.279797 0.742384
1311875576.395125 1.472794 9.184006 0.562775
1311875576.396126 1.472794 9.184006 0.562775
1311875576.397390 1.472794 9.184006 0.562775
1311875576.398372 1.472794 9.184006 0.562775
1311875576.401989 1.365028 9.184006 0.562775
1311875576.403143 1.365028 9.184006 0.562775
1311875576.406305 1.544637 9.112162 0.658566
1311875576.407251 1.544637 9.112162 0.658566
1311875576.410483 1.520689 9.112162 0.658566
1311875576.411492 1.520689 9.112162 0.658566
1311875576.414999 1.365028 9.184006 0.706462
1311875576.416117 1.365028 9.184006 0.706462
1311875576.417358 1.365028 9.184006 0.706462
1311875576.418352 1.365028 9.184006 0.706462
1311875576.423780 1.520689 9.088214 0.658566
1311875576.424975 1.556611 9.088214 0.466983
1311875576.426130 1.556611 9.088214 0.466983
1311875576.427237 1.556611 9.088214 0.466983
1311875576.428393 1.556611 9.088214 0.466983
1311875576.432122 1.365028 9.088214 0.754358
1311875576.433013 1.365028 9.088214 0.754358
1311875576.436249 1.365028 9.088214 0.754358
1311875576.437267 1.365028 9.088214 0.754358
1311875576.440256 1.365028 8.896631 0.850149
1311875576.441234 1.365028 8.896631 0.850149
1311875576.444905 1.472794 9.088214 0.754358
1311875576.445879 1.472794 9.088214 0.754358
1311875576.447145 1.472794 9.088214 0.754358
1311875576.448120 1.472794 9.088214 0.754358
1311875576.451378 1.556611 9.040318 0.945941
1311875576.452361 1.556611 9.040318 0.945941
1311875576.455884 1.556611 9.088214 0.945941
1311875576.456993 1.556611 9.088214 0.945941
1311875576.460123 1.556611 9.088214 1.089628
1311875576.461116 1.556611 9.088214 1.089628
1311875576.462367 1.556611 9.088214 1.089628
1311875576.463391 1.556611 9.088214 1.089628
1311875576.467004 1.580559 8.896631 1.137524
1311875576.468143 1.580559 8.896631 1.137524
1311875576.471267 1.556611 8.992423 1.329106
1311875576.472266 1.556611 8.992423 1.329106
1311875576.475495 1.556611 9.088214 1.233315
1311875576.476876 1.556611 9.088214 1.233315
1311875576.480218 1.556611 9.040318 1.329106
1311875576.481123 1.556611 9.040318 1.329106
1311875576.482441 1.556611 9.040318 1.329106
1311875576.483369 1.556611 9.040318 1.329106
1311875576.486993 1.652403 8.896631 1.329106
1311875576.488012 1.652403 8.896631 1.329106
1311875576.491113 1.760168 8.896631 1.329106
1311875576.492219 1.760168 8.896631 1.329106
1311875576.495366 1.760168 8.896631 1.329106
1311875576.496479 1.760168 8.896631 1.329106
1311875576.500004 1.760168 8.992423 1.329106
1311875576.500971 1.760168 8.992423 1.329106
1311875576.502388 1.760168 8.992423 1.329106
1311875576.503384 1.760168 8.992423 1.329106
1311875576.506894 1.903855 8.896631 1.233315
1311875576.507857 1.903855 8.896631 1.233315
1311875576.511134 1.855959 9.040318 1.137524
1311875576.512133 1.855959 9.040318 1.137524
1311875576.515255 1.580559 9.088214 1.113576
1311875576.516234 1.580559 9.088214 1.113576
1311875576.519375 1.556611 9.064266 1.137524
1311875576.520873 1.556611 9.064266 1.137524
1311875576.522019 1.556611 9.064266 1.137524
1311875576.523147 1.556611 9.064266 1.137524
1311875576.526237 1.652403 9.088214 1.137524
1311875576.527261 1.652403 9.088214 1.137524
1311875576.530893 1.760168 9.088214 1.137524
1311875576.531862 1.760168 9.088214 1.137524
1311875576.535114 1.556611 9.088214 1.329106
1311875576.536105 1.556611 9.088214 1.329106
1311875576.537364 1.556611 9.088214 1.329106
1311875576.538363 1.556611 9.088214 1.329106
1311875576.542002 1.556611 9.088214 1.137524
1311875576.543039 1.556611 9.088214 1.137524
1311875576.546290 1.556611 9.088214 1.329106
1311875576.547248 1.556611 9.088214 1.329106
1311875576.550510 1.556611 9.088214 1.233315
1311875576.551877 1.556611 9.088214 1.233315
1311875576.554983 1.556611 9.088214 1.233315
1311875576.556109 1.556611 9.088214 1.233315
1311875576.557228 1.556611 9.088214 1.233315
1311875576.558345 1.556611 9.088214 1.233315
1311875576.561889 1.556611 9.088214 1.185419
1311875576.562883 1.556611 9.088214 1.185419
1311875576.566140 1.556611 9.088214 1.233315
1311875576.567138 1.556611 9.088214 1.233315
1311875576.570256 1.556611 9.088214 1.329106
1311875576.571264 1.556611 9.088214 1.329106
1311875576.574893 1.580559 9.279797 1.137524
1311875576.575861 1.580559 9.279797 1.137524
1311875576.576871 1.580559 9.279797 1.137524
1311875576.580281 1.556611 9.375588 1.041732
1311875576.581248 1.556611 9.375588 1.041732
1311875576.584888 1.568585 9.279797 0.778306
1311875576.585897 1.568585 9.279797 0.778306
1311875576.587116 1.568585 9.279797 0.778306
1311875576.588221 1.568585 9.279797 0.778306
1311875576.591249 1.520689 9.375588 0.945941
1311875576.592369 1.520689 9.375588 0.945941
1311875576.595931 1.556611 9.279797 0.754358
1311875576.596994 1.556611 9.279797 0.754358
1311875576.600137 1.520689 9.375588 0.945941
1311875576.601259 1.520689 9.375588 0.945941
1311875576.602521 1.520689 9.375588 0.945941
1311875576.603387 1.520689 9.375588 0.945941
1311875576.607015 1.556611 9.279797 0.658566
1311875576.608138 1.556611 9.279797 0.658566
1311875576.611261 1.544637 9.459406 0.754358
1311875576.612379 1.544637 9.459406 0.754358
1311875576.615870 1.556611 9.375588 0.562775
1311875576.616980 1.556611 9.375588 0.562775
1311875576.620105 1.556611 9.375588 0.658566
1311875576.621267 1.556611 9.375588 0.658566
1311875576.622381 1.556611 9.375588 0.658566
1311875576.623385 1.556611 9.375588 0.658566
1311875576.627138 1.472794 9.423484 0.562775
1311875576.628121 1.472794 9.423484 0.562775
1311875576.631245 1.472794 9.279797 0.562775
1311875576.632369 1.472794 9.279797 0.562775
1311875576.635910 1.365028 9.459406 0.562775
1311875576.636888 1.365028 9.459406 0.562775
1311875576.640126 1.472794 9.471380 0.466983
1311875576.641111 1.472794 9.471380 0.466983
1311875576.642371 1.472794 9.471380 0.466983
1311875576.643373 1.472794 9.471380 0.466983
1311875576.647035 1.365028 9.483354 0.371192
1311875576.648122 1.365028 9.483354 0.371192
1311875576.651245 1.269237 9.471380 0.179609
1311875576.652466 1.269237 9.471380 0.179609
1311875576.655888 1.365028 9.471380 0.179609
1311875576.656876 1.365028 9.471380 0.179609
1311875576.660128 1.365028 9.567171 0.083818
1311875576.661157 1.365028 9.567171 0.083818
1311875576.662352 1.365028 9.567171 0.083818
1311875576.663367 1.365028 9.567171 0.083818
1311875576.666869 1.365028 9.662963 -0.011974
1311875576.667991 1.365028 9.662963 -0.011974
1311875576.671137 1.269237 9.662963 -0.059870
1311875576.672255 1.269237 9.662963 -0.059870
1311875576.675125 1.269237 9.758754 0.035922
1311875576.676242 1.269237 9.758754 0.035922
1311875576.677493 1.269237 9.758754 0.035922
1311875576.678496 1.269237 9.758754 0.035922
1311875576.682024 1.185419 9.806650 -0.059870
1311875576.683028 1.185419 9.806650 -0.059870
1311875576.686127 1.269237 9.842572 -0.011974
1311875576.687234 1.269237 9.842572 -0.011974
1311875576.690125 1.269237 9.806650 -0.035922
1311875576.691122 1.269237 9.806650 -0.035922
1311875576.692494 1.269237 9.806650 -0.035922
1311875576.693533 1.269237 9.806650 -0.035922
1311875576.696858 1.185419 9.854546 0.000000
1311875576.697887 1.185419 9.854546 0.000000
1311875576.701120 1.221341 9.662963 0.083818
1311875576.702196 1.221341 9.662963 0.083818
1311875576.705272 1.185419 9.758754 0.035922
1311875576.706266 1.185419 9.758754 0.035922
1311875576.707342 1.185419 9.758754 0.035922
1311875576.708863 1.185419 9.758754 0.035922
1311875576.712117 1.365028 9.567171 0.347244
1311875576.713103 1.365028 9.567171 0.347244
1311875576.716369 1.365028 9.519276 0.275400
1311875576.717393 1.365028 9.519276 0.275400
1311875576.720875 1.269237 9.471380 0.371192
1311875576.722014 1.269237 9.471380 0.371192
1311875576.725129 1.269237 9.471380 0.179609
1311875576.726259 1.269237 9.471380 0.179609
1311875576.727386 1.269237 9.471380 0.179609
1311875576.728872 1.269237 9.471380 0.179609
1311875576.732140 1.365028 9.471380 0.275400
1311875576.733132 1.365028 9.471380 0.275400
1311875576.736260 1.269237 9.519276 0.179609
1311875576.737384 1.269237 9.519276 0.179609
1311875576.740861 1.185419 9.662963 0.275400
1311875576.741870 1.185419 9.662963 0.275400
1311875576.745135 1.185419 9.758754 -0.011974
1311875576.746131 1.185419 9.758754 -0.011974
1311875576.747402 1.185419 9.758754 -0.011974
1311875576.748357 1.185419 9.758754 -0.011974
1311875576.751865 1.221341 9.854546 -0.011974
1311875576.752848 1.221341 9.854546 -0.011974
1311875576.756130 1.185419 9.866520 0.011974
1311875576.757128 1.185419 9.866520 0.011974
1311875576.760257 1.221341 9.854546 -0.011974
1311875576.761224 1.221341 9.854546 -0.011974
1311875576.762494 1.221341 9.854546 -0.011974
1311875576.763479 1.221341 9.854546 -0.011974
1311875576.766996 1.185419 9.950337 -0.011974
1311875576.768019 1.185419 9.950337 -0.011974
1311875576.771137 1.269237 9.902441 0.035922
1311875576.772233 1.269237 9.902441 0.035922
1311875576.775262 1.221341 9.950337 0.275400
1311875576.776257 1.221341 9.950337 0.275400
1311875576.779537 1.269237 9.854546 0.179609
1311875576.780786 1.269237 9.854546 0.179609
1311875576.782111 1.269237 9.854546 0.179609
1311875576.783099 1.269237 9.854546 0.179609
1311875576.786284 1.365028 9.758754 0.275400
1311875576.787347 1.365028 9.758754 0.275400
1311875576.790879 1.365028 9.662963 0.371192
1311875576.792010 1.365028 9.662963 0.371192
1311875576.795158 1.221341 9.471380 0.466983
1311875576.796132 1.221341 9.471380 0.466983
1311875576.797428 1.221341 9.471380 0.466983
1311875576.798418 1.221341 9.471380 0.466983
1311875576.802009 1.365028 9.279797 0.562775
1311875576.803013 1.365028 9.279797 0.562775
1311875576.806268 1.365028 9.279797 0.658566
1311875576.807245 1.365028 9.279797 0.658566
1311875576.810367 1.221341 9.136110 0.754358
1311875576.811494 1.221341 9.136110 0.754358
1311875576.815021 1.365028 9.088214 0.658566
1311875576.816112 1.365028 9.088214 0.658566
1311875576.817365 1.365028 9.088214 0.658566
1311875576.818355 1.365028 9.088214 0.658566
1311875576.821906 1.365028 9.040318 0.658566
1311875576.822856 1.365028 9.040318 0.658566
1311875576.826162 1.365028 9.076240 0.658566
1311875576.827102 1.365028 9.076240 0.658566
1311875576.830259 1.365028 9.088214 0.754358
1311875576.831260 1.365028 9.088214 0.754358
1311875576.834382 1.269237 9.279797 0.754358
1311875576.835488 1.269237 9.279797 0.754358
1311875576.836985 1.269237 9.279797 0.754358
1311875576.838136 1.269237 9.279797 0.754358
1311875576.841261 1.269237 9.423484 0.706462
1311875576.842379 1.269237 9.423484 0.706462
1311875576.846507 1.269237 9.519276 0.802253
1311875576.847376 1.269237 9.519276 0.802253
1311875576.848361 1.269237 9.519276 0.802253
1311875576.851992 1.365028 9.495328 0.658566
1311875576.852978 1.365028 9.495328 0.658566
1311875576.856272 1.472794 9.567171 0.754358
1311875576.857249 1.472794 9.567171 0.754358
1311875576.860508 1.520689 9.519276 0.754358
1311875576.861523 1.520689 9.519276 0.754358
1311875576.865013 1.556611 9.483354 0.706462
1311875576.866118 1.556611 9.483354 0.706462
1311875576.867258 1.556611 9.483354 0.706462
1311875576.868368 1.556611 9.483354 0.706462
1311875576.871879 1.556611 9.471380 0.754358
1311875576.873014 1.556611 9.471380 0.754358
1311875576.876247 1.760168 9.471380 0.562775
1311875576.877239 1.760168 9.471380 0.562775
1311875576.880267 1.760168 9.447432 0.371192
1311875576.881257 1.760168 9.447432 0.371192
1311875576.884898 1.652403 9.471380 0.371192
1311875576.885854 1.652403 9.471380 0.371192
1311875576.887107 1.652403 9.471380 0.371192
1311875576.889143 1.652403 9.471380 0.371192
1311875576.891377 1.855959 9.279797 0.179609
1311875576.892375 1.855959 9.279797 0.179609
1311875576.895888 1.855959 9.375588 0.179609
1311875576.897035 1.855959 9.375588 0.179609
1311875576.900122 1.951751 9.375588 0.035922
1311875576.901182 1.951751 9.375588 0.035922
1311875576.902407 1.951751 9.375588 0.035922
