# accelerometer data
# file: 'rgbd_dataset_freiburg2_360_kidnap.bag'
# timestamp ax ay az
1311875131.844446 -0.167635 9.471380 -0.778306
1311875131.845466 -0.167635 9.471380 -0.778306
1311875131.848679 -0.011974 9.519276 -0.586723
1311875131.849819 -0.011974 9.519276 -0.586723
1311875131.853314 0.227505 9.758754 -0.395140
1311875131.854320 0.227505 9.758754 -0.395140
1311875131.855570 0.227505 9.758754 -0.395140
1311875131.856712 0.227505 9.758754 -0.395140
1311875131.859820 0.502905 9.854546 -0.395140
1311875131.860816 0.502905 9.854546 -0.395140
1311875131.864467 0.598697 9.950337 -0.203557
1311875131.865447 0.598697 9.950337 -0.203557
1311875131.868566 0.778306 9.950337 -0.107765
1311875131.869563 0.778306 9.950337 -0.107765
1311875131.870816 0.778306 9.950337 -0.107765
1311875131.871929 0.778306 9.950337 -0.107765
1311875131.875464 0.598697 10.225738 0.179609
1311875131.876421 0.598697 10.225738 0.179609
1311875131.879724 0.778306 10.046129 0.371192
1311875131.880692 0.778306 10.046129 0.371192
1311875131.883946 0.754358 9.854546 0.371192
1311875131.885172 0.754358 9.854546 0.371192
1311875131.888600 0.790279 9.842572 0.275400
1311875131.889573 0.790279 9.842572 0.275400
1311875131.890812 0.790279 9.842572 0.275400
1311875131.891817 0.790279 9.842572 0.275400
1311875131.895294 0.802253 9.279797 0.035922
1311875131.896444 0.802253 9.279797 0.035922
1311875131.899581 0.754358 9.088214 0.179609
1311875131.900693 0.754358 9.088214 0.179609
1311875131.903573 0.431062 8.896631 0.011974
1311875131.904711 0.431062 8.896631 0.011974
1311875131.905946 0.431062 8.896631 0.011974
1311875131.906947 0.431062 8.896631 0.011974
1311875131.910444 0.407114 8.717022 -0.203557
1311875131.911436 0.407114 8.717022 -0.203557
1311875131.914812 0.407114 8.800840 -0.395140
1311875131.915817 0.407114 8.800840 -0.395140
1311875131.919292 0.227505 8.896631 -0.490931
1311875131.920465 0.227505 8.896631 -0.490931
1311875131.923668 0.227505 8.896631 -0.778306
1311875131.924851 0.227505 8.896631 -0.778306
1311875131.928300 0.323296 9.088214 -0.682514
1311875131.929461 0.323296 9.088214 -0.682514
1311875131.930553 0.323296 9.088214 -0.682514
1311875131.931571 0.323296 9.088214 -0.682514
1311875131.934854 0.227505 9.184006 -0.443035
1311875131.935848 0.227505 9.184006 -0.443035
1311875131.939315 0.407114 9.112162 -0.395140
1311875131.940443 0.407114 9.112162 -0.395140
1311875131.943676 0.407114 9.088214 -0.203557
1311875131.944696 0.407114 9.088214 -0.203557
1311875131.946176 0.407114 9.088214 -0.203557
1311875131.949444 0.407114 8.896631 0.179609
1311875131.950464 0.407114 8.896631 0.179609
1311875131.953578 0.323296 8.705048 0.179609
1311875131.954601 0.323296 8.705048 0.179609
1311875131.955819 0.323296 8.705048 0.179609
1311875131.956953 0.323296 8.705048 0.179609
1311875131.960447 0.227505 7.914769 0.179609
1311875131.961425 0.227505 7.914769 0.179609
1311875131.964724 0.023948 7.196333 0.179609
1311875131.965694 0.023948 7.196333 0.179609
1311875131.969301 0.119739 7.124489 -0.203557
1311875131.970319 0.119739 7.124489 -0.203557
1311875131.971316 0.119739 7.124489 -0.203557
1311875131.974720 0.502905 7.938717 -0.586723
1311875131.975689 0.502905 7.938717 -0.586723
1311875131.979339 0.993836 8.705048 -0.586723
1311875131.980294 0.993836 8.705048 -0.586723
1311875131.983537 1.185419 9.088214 -0.347244
1311875131.984723 1.185419 9.088214 -0.347244
1311875131.985973 1.185419 9.088214 -0.347244
1311875131.986947 1.185419 9.088214 -0.347244
1311875131.990442 0.993836 9.519276 0.371192
1311875131.991441 0.993836 9.519276 0.371192
1311875131.994691 0.814227 9.279797 0.395140
1311875131.995691 0.814227 9.279797 0.395140
1311875131.999197 0.778306 9.100188 0.371192
1311875132.000443 0.778306 9.100188 0.371192
1311875132.001428 0.778306 9.100188 0.371192
1311875132.004698 0.706462 9.184006 0.179609
1311875132.005719 0.706462 9.184006 0.179609
1311875132.009287 0.706462 9.279797 0.371192
1311875132.010315 0.706462 9.279797 0.371192
1311875132.013555 0.993836 9.471380 0.323296
1311875132.014568 0.993836 9.471380 0.323296
1311875132.015811 0.993836 9.471380 0.323296
1311875132.016788 0.993836 9.471380 0.323296
1311875132.020447 0.814227 9.806650 0.466983
1311875132.021444 0.814227 9.806650 0.466983
1311875132.024691 0.802253 9.854546 0.371192
1311875132.025698 0.802253 9.854546 0.371192
1311875132.028928 0.790279 10.213764 0.371192
1311875132.029944 0.790279 10.213764 0.371192
1311875132.033429 0.802253 10.429294 -0.011974
1311875132.034428 0.802253 10.429294 -0.011974
1311875132.035691 0.802253 10.429294 -0.011974
1311875132.036818 0.802253 10.429294 -0.011974
1311875132.039680 0.598697 10.668773 -0.203557
1311875132.040822 0.598697 10.668773 -0.203557
1311875132.044442 0.598697 10.812460 -0.299348
1311875132.045443 0.598697 10.812460 -0.299348
1311875132.048563 0.407114 10.812460 -0.383166
1311875132.049694 0.407114 10.812460 -0.383166
1311875132.050837 0.407114 10.812460 -0.383166
1311875132.051806 0.407114 10.812460 -0.383166
1311875132.055427 0.407114 11.004043 -0.203557
1311875132.056565 0.407114 11.004043 -0.203557
1311875132.059696 0.407114 11.004043 -0.395140
1311875132.060805 0.407114 11.004043 -0.395140
1311875132.064316 0.227505 10.525086 -0.395140
1311875132.065291 0.227505 10.525086 -0.395140
1311875132.068551 0.023948 10.333503 -0.299348
1311875132.069566 0.023948 10.333503 -0.299348
1311875132.070783 0.023948 10.333503 -0.299348
1311875132.071790 0.023948 10.333503 -0.299348
1311875132.075422 -0.011974 9.902441 -0.059870
1311875132.076442 -0.011974 9.902441 -0.059870
1311875132.079694 -0.167635 9.662963 -0.203557
1311875132.080814 -0.167635 9.662963 -0.203557
1311875132.083823 -0.347244 9.471380 -0.035922
1311875132.084927 -0.347244 9.471380 -0.035922
1311875132.088426 -0.167635 9.136110 -0.011974
1311875132.089563 -0.167635 9.136110 -0.011974
1311875132.090690 -0.167635 9.136110 -0.011974
1311875132.091672 -0.167635 9.136110 -0.011974
1311875132.094692 -0.167635 9.088214 0.083818
1311875132.095698 -0.167635 9.088214 0.083818
1311875132.099301 -0.011974 9.064266 0.083818
1311875132.100317 -0.011974 9.064266 0.083818
1311875132.103548 0.023948 8.992423 -0.203557
1311875132.104540 0.023948 8.992423 -0.203557
1311875132.105791 0.023948 8.992423 -0.203557
1311875132.106792 0.023948 8.992423 -0.203557
1311875132.110439 0.023948 9.088214 -0.299348
1311875132.111564 0.023948 9.088214 -0.299348
1311875132.114690 0.035922 9.100188 -0.299348
1311875132.115703 0.035922 9.100188 -0.299348
1311875132.118918 0.323296 9.375588 -0.395140
1311875132.120198 0.323296 9.375588 -0.395140
1311875132.123609 0.598697 9.375588 -0.490931
1311875132.124685 0.598697 9.375588 -0.490931
1311875132.125809 0.598697 9.375588 -0.490931
1311875132.126816 0.598697 9.375588 -0.490931
1311875132.130440 0.598697 9.471380 -0.395140
1311875132.131425 0.598697 9.471380 -0.395140
1311875132.134709 0.598697 9.447432 -0.107765
1311875132.135677 0.598697 9.447432 -0.107765
1311875132.139285 0.802253 9.375588 -0.203557
1311875132.140281 0.802253 9.375588 -0.203557
1311875132.141282 0.802253 9.375588 -0.203557
1311875132.144658 0.802253 9.279797 0.083818
1311875132.145689 0.802253 9.279797 0.083818
1311875132.149296 0.802253 9.279797 0.179609
1311875132.150293 0.802253 9.279797 0.179609
1311875132.151291 0.802253 9.279797 0.179609
1311875132.154690 0.993836 9.136110 0.179609
1311875132.155736 0.993836 9.136110 0.179609
1311875132.158804 1.161471 9.088214 -0.011974
1311875132.159818 1.161471 9.088214 -0.011974
1311875132.163293 1.161471 9.136110 -0.059870
1311875132.164445 1.161471 9.136110 -0.059870
1311875132.165673 1.161471 9.136110 -0.059870
1311875132.166690 1.161471 9.136110 -0.059870
1311875132.169803 0.886071 9.088214 0.275400
1311875132.170789 0.886071 9.088214 0.275400
1311875132.174417 0.993836 8.896631 0.371192
1311875132.175414 0.993836 8.896631 0.371192
1311875132.178694 0.598697 8.896631 0.730410
1311875132.179690 0.598697 8.896631 0.730410
1311875132.182923 0.455009 8.800840 0.754358
1311875132.183926 0.455009 8.800840 0.754358
1311875132.185566 0.455009 8.800840 0.754358
1311875132.186563 0.455009 8.800840 0.754358
1311875132.189692 0.371192 8.896631 0.754358
1311875132.190854 0.371192 8.896631 0.754358
1311875132.194314 0.227505 9.088214 0.754358
1311875132.195298 0.227505 9.088214 0.754358
1311875132.198565 0.119739 9.279797 0.562775
1311875132.199559 0.119739 9.279797 0.562775
1311875132.200798 0.119739 9.279797 0.562775
1311875132.201909 0.119739 9.279797 0.562775
1311875132.205544 0.119739 9.471380 0.083818
1311875132.206539 0.119739 9.471380 0.083818
1311875132.209812 0.023948 9.662963 -0.107765
1311875132.210789 0.023948 9.662963 -0.107765
1311875132.214438 0.023948 9.662963 -0.395140
1311875132.215420 0.023948 9.662963 -0.395140
1311875132.218675 0.023948 9.662963 -0.490931
1311875132.219689 0.023948 9.662963 -0.490931
1311875132.221162 0.023948 9.662963 -0.490931
1311875132.222298 0.023948 9.662963 -0.490931
1311875132.225569 -0.059870 9.806650 -0.490931
1311875132.226564 -0.059870 9.806650 -0.490931
1311875132.229784 0.023948 9.854546 -0.443035
1311875132.230815 0.023948 9.854546 -0.443035
1311875132.234435 0.035922 9.854546 -0.586723
1311875132.235436 0.035922 9.854546 -0.586723
1311875132.238669 0.047896 9.854546 -0.586723
1311875132.239664 0.047896 9.854546 -0.586723
1311875132.242783 0.119739 9.854546 -0.490931
1311875132.243920 0.119739 9.854546 -0.490931
1311875132.245424 0.119739 9.854546 -0.490931
1311875132.246550 0.119739 9.854546 -0.490931
1311875132.249814 0.323296 10.046129 -0.586723
1311875132.250815 0.323296 10.046129 -0.586723
1311875132.254431 0.371192 9.950337 -0.395140
1311875132.255424 0.371192 9.950337 -0.395140
1311875132.258673 0.407114 9.950337 -0.395140
1311875132.259690 0.407114 9.950337 -0.395140
1311875132.263289 0.407114 10.046129 -0.203557
1311875132.264437 0.407114 10.046129 -0.203557
1311875132.265437 0.407114 10.046129 -0.203557
1311875132.268672 0.323296 10.046129 -0.203557
1311875132.269667 0.323296 10.046129 -0.203557
1311875132.273288 0.227505 10.046129 -0.371192
1311875132.274291 0.227505 10.046129 -0.371192
1311875132.275285 0.227505 10.046129 -0.371192
1311875132.278566 0.227505 9.902441 -0.011974
1311875132.279566 0.227505 9.902441 -0.011974
1311875132.280798 0.227505 9.902441 -0.011974
1311875132.281958 0.227505 9.902441 -0.011974
1311875132.285422 0.227505 9.806650 -0.023948
1311875132.286431 0.227505 9.806650 -0.023948
1311875132.289689 0.023948 9.662963 -0.011974
1311875132.290674 0.023948 9.662963 -0.011974
1311875132.293661 0.119739 9.567171 -0.011974
1311875132.294686 0.119739 9.567171 -0.011974
1311875132.295942 0.119739 9.567171 -0.011974
1311875132.297287 0.119739 9.567171 -0.011974
1311875132.300415 0.119739 9.471380 0.179609
1311875132.301544 0.119739 9.471380 0.179609
1311875132.304670 0.023948 9.279797 0.083818
1311875132.305782 0.023948 9.279797 0.083818
1311875132.309293 0.023948 9.136110 0.275400
1311875132.310279 0.023948 9.136110 0.275400
1311875132.313541 0.071844 9.088214 0.179609
1311875132.314559 0.071844 9.088214 0.179609
1311875132.316067 0.071844 9.088214 0.179609
1311875132.319319 0.119739 9.064266 0.371192
1311875132.320437 0.119739 9.064266 0.371192
1311875132.323557 0.047896 9.088214 0.179609
1311875132.324654 0.047896 9.088214 0.179609
1311875132.325941 0.047896 9.088214 0.179609
1311875132.326916 0.047896 9.088214 0.179609
1311875132.330338 0.227505 9.136110 0.035922
1311875132.331403 0.227505 9.136110 0.035922
1311875132.334532 0.407114 9.112162 -0.011974
1311875132.335517 0.407114 9.112162 -0.011974
1311875132.338545 0.407114 9.471380 0.000000
1311875132.339415 0.407114 9.471380 0.000000
1311875132.340660 0.407114 9.471380 0.000000
1311875132.341815 0.407114 9.471380 0.000000
1311875132.345294 0.407114 9.471380 0.083818
1311875132.346288 0.407114 9.471380 0.083818
1311875132.349572 0.407114 9.662963 0.035922
1311875132.350542 0.407114 9.662963 0.035922
1311875132.353678 0.431062 9.662963 -0.011974
1311875132.354665 0.431062 9.662963 -0.011974
1311875132.355914 0.431062 9.662963 -0.011974
1311875132.357292 0.431062 9.662963 -0.011974
1311875132.360452 0.598697 9.806650 -0.011974
1311875132.361441 0.598697 9.806650 -0.011974
1311875132.364427 0.502905 9.854546 0.000000
1311875132.365546 0.502905 9.854546 0.000000
1311875132.368666 0.407114 9.567171 -0.011974
1311875132.369673 0.407114 9.567171 -0.011974
1311875132.370914 0.407114 9.567171 -0.011974
1311875132.371903 0.407114 9.567171 -0.011974
1311875132.375415 0.371192 9.662963 0.179609
1311875132.376551 0.371192 9.662963 0.179609
1311875132.379822 0.227505 9.483354 0.371192
1311875132.380803 0.227505 9.483354 0.371192
1311875132.384649 -0.359218 9.471380 0.562775
1311875132.385534 -0.359218 9.471380 0.562775
1311875132.386542 -0.359218 9.471380 0.562775
1311875132.389835 -0.395140 9.279797 0.754358
1311875132.390810 -0.395140 9.279797 0.754358
1311875132.394411 -0.347244 9.471380 0.658566
1311875132.395436 -0.347244 9.471380 0.658566
1311875132.398661 -0.167635 9.471380 0.371192
1311875132.399640 -0.167635 9.471380 0.371192
1311875132.403300 -0.263426 9.279797 0.562775
1311875132.404284 -0.263426 9.279797 0.562775
1311875132.405561 -0.263426 9.279797 0.562775
1311875132.406557 -0.263426 9.279797 0.562775
1311875132.409817 0.023948 9.471380 0.562775
1311875132.410789 0.023948 9.471380 0.562775
1311875132.414448 0.119739 9.662963 0.179609
1311875132.415432 0.119739 9.662963 0.179609
1311875132.418672 0.119739 9.483354 -0.107765
1311875132.419669 0.119739 9.483354 -0.107765
1311875132.422788 -0.059870 9.519276 -0.011974
1311875132.423914 -0.059870 9.519276 -0.011974
1311875132.425418 -0.059870 9.519276 -0.011974
1311875132.426554 -0.059870 9.519276 -0.011974
1311875132.429680 -0.263426 9.184006 -0.011974
1311875132.430663 -0.263426 9.184006 -0.011974
1311875132.434296 -0.059870 9.088214 0.035922
1311875132.435282 -0.059870 9.088214 0.035922
1311875132.436293 -0.059870 9.088214 0.035922
1311875132.439664 0.011974 9.088214 0.275400
1311875132.440656 0.011974 9.088214 0.275400
1311875132.443945 0.119739 9.088214 0.275400
1311875132.445277 0.119739 9.088214 0.275400
1311875132.448574 0.407114 9.136110 0.371192
1311875132.449532 0.407114 9.136110 0.371192
1311875132.450809 0.407114 9.136110 0.371192
1311875132.451780 0.407114 9.136110 0.371192
1311875132.455416 0.419088 9.136110 0.179609
1311875132.456412 0.419088 9.136110 0.179609
1311875132.459573 0.502905 9.136110 0.179609
1311875132.460682 0.502905 9.136110 0.179609
1311875132.464314 0.407114 9.471380 0.371192
1311875132.465277 0.407114 9.471380 0.371192
1311875132.468542 0.407114 9.471380 -0.011974
1311875132.469544 0.407114 9.471380 -0.011974
1311875132.470778 0.407114 9.471380 -0.011974
1311875132.471775 0.407114 9.471380 -0.011974
1311875132.475300 0.407114 9.423484 -0.107765
1311875132.476419 0.407114 9.423484 -0.107765
1311875132.479560 0.227505 9.375588 -0.203557
1311875132.480658 0.227505 9.375588 -0.203557
1311875132.483682 0.119739 9.184006 -0.395140
1311875132.484792 0.119739 9.184006 -0.395140
1311875132.488294 0.227505 9.088214 -0.299348
1311875132.489280 0.227505 9.088214 -0.299348
1311875132.490546 0.227505 9.088214 -0.299348
1311875132.491551 0.227505 9.088214 -0.299348
1311875132.494700 0.071844 9.088214 -0.299348
1311875132.495672 0.071844 9.088214 -0.299348
1311875132.499305 0.227505 9.184006 -0.203557
1311875132.500409 0.227505 9.184006 -0.203557
1311875132.503553 0.227505 9.375588 0.179609
1311875132.504551 0.227505 9.375588 0.179609
1311875132.505782 0.227505 9.375588 0.179609
1311875132.506780 0.227505 9.375588 0.179609
1311875132.510303 0.227505 9.423484 -0.059870
1311875132.511474 0.227505 9.423484 -0.059870
1311875132.514575 0.071844 9.459406 -0.023948
1311875132.515564 0.071844 9.459406 -0.023948
1311875132.518541 0.119739 9.279797 0.083818
1311875132.519671 0.119739 9.279797 0.083818
1311875132.521168 0.119739 9.279797 0.083818
1311875132.522294 0.119739 9.279797 0.083818
1311875132.525559 0.023948 9.279797 0.371192
1311875132.526557 0.023948 9.279797 0.371192
1311875132.529855 0.323296 9.184006 0.371192
1311875132.530797 0.323296 9.184006 0.371192
1311875132.534428 0.371192 9.184006 0.562775
1311875132.535399 0.371192 9.184006 0.562775
1311875132.538554 0.371192 9.088214 0.562775
1311875132.539657 0.371192 9.088214 0.562775
1311875132.541283 0.371192 9.088214 0.562775
1311875132.544414 0.407114 9.088214 0.562775
1311875132.545398 0.407114 9.088214 0.562775
1311875132.548688 0.407114 9.088214 0.419088
1311875132.549654 0.407114 9.088214 0.419088
1311875132.553301 0.323296 9.136110 0.658566
1311875132.554271 0.323296 9.136110 0.658566
1311875132.555526 0.323296 9.136110 0.658566
1311875132.556523 0.323296 9.136110 0.658566
1311875132.559844 0.407114 9.184006 0.419088
1311875132.560811 0.407114 9.184006 0.419088
1311875132.564452 0.371192 9.279797 0.371192
1311875132.565424 0.371192 9.279797 0.371192
1311875132.568745 0.407114 9.375588 0.275400
1311875132.569665 0.407114 9.375588 0.275400
1311875132.573318 0.419088 9.279797 0.083818
1311875132.574332 0.419088 9.279797 0.083818
1311875132.575563 0.419088 9.279797 0.083818
1311875132.576549 0.419088 9.279797 0.083818
1311875132.579822 0.395140 9.423484 0.083818
1311875132.580821 0.395140 9.423484 0.083818
1311875132.584285 0.323296 9.279797 -0.011974
1311875132.585314 0.323296 9.279797 -0.011974
1311875132.588546 0.323296 9.375588 -0.107765
1311875132.589545 0.323296 9.375588 -0.107765
1311875132.590817 0.323296 9.375588 -0.107765
1311875132.591779 0.323296 9.375588 -0.107765
1311875132.595289 0.227505 9.279797 -0.203557
1311875132.596430 0.227505 9.279797 -0.203557
1311875132.599664 0.071844 9.471380 -0.419088
1311875132.600673 0.071844 9.471380 -0.419088
1311875132.604299 0.023948 9.662963 -0.299348
1311875132.605292 0.023948 9.662963 -0.299348
1311875132.608552 -0.059870 9.854546 -0.347244
1311875132.609534 -0.059870 9.854546 -0.347244
1311875132.610822 -0.059870 9.854546 -0.347244
1311875132.611812 -0.059870 9.854546 -0.347244
1311875132.615433 -0.263426 10.237712 -0.203557
1311875132.616421 -0.263426 10.237712 -0.203557
1311875132.619668 -0.263426 10.141920 -0.107765
1311875132.620662 -0.263426 10.141920 -0.107765
1311875132.623791 -0.347244 10.141920 -0.011974
1311875132.625323 -0.347244 10.141920 -0.011974
1311875132.628449 -0.359218 10.249685 0.083818
1311875132.629434 -0.359218 10.249685 0.083818
1311875132.630674 -0.359218 10.249685 0.083818
1311875132.631674 -0.359218 10.249685 0.083818
1311875132.635301 -0.347244 10.249685 -0.059870
1311875132.636295 -0.347244 10.249685 -0.059870
1311875132.637427 -0.347244 10.249685 -0.059870
1311875132.640677 -0.347244 10.429294 -0.011974
1311875132.641722 -0.347244 10.429294 -0.011974
1311875132.644656 -0.263426 10.333503 -0.011974
1311875132.645794 -0.263426 10.333503 -0.011974
1311875132.649453 -0.167635 10.237712 -0.011974
1311875132.650417 -0.167635 10.237712 -0.011974
1311875132.651411 -0.167635 10.237712 -0.011974
1311875132.654559 0.023948 10.189816 -0.059870
1311875132.655664 0.023948 10.189816 -0.059870
1311875132.658541 0.023948 9.902441 -0.035922
1311875132.659564 0.023948 9.902441 -0.035922
1311875132.660932 0.023948 9.902441 -0.035922
1311875132.661927 0.023948 9.902441 -0.035922
1311875132.665432 0.119739 9.854546 0.179609
1311875132.666415 0.119739 9.854546 0.179609
1311875132.669471 0.227505 9.519276 0.000000
1311875132.670533 0.227505 9.519276 0.000000
1311875132.673667 0.323296 9.423484 0.035922
1311875132.674651 0.323296 9.423484 0.035922
1311875132.675898 0.323296 9.423484 0.035922
1311875132.677312 0.323296 9.423484 0.035922
1311875132.680561 0.227505 9.136110 -0.203557
1311875132.681700 0.227505 9.136110 -0.203557
1311875132.684698 0.227505 9.088214 -0.035922
1311875132.685651 0.227505 9.088214 -0.035922
1311875132.689277 0.323296 9.088214 -0.203557
1311875132.690293 0.323296 9.088214 -0.203557
1311875132.693537 0.023948 8.992423 -0.011974
1311875132.694581 0.023948 8.992423 -0.011974
1311875132.695773 0.023948 8.992423 -0.011974
1311875132.696762 0.023948 8.992423 -0.011974
1311875132.700365 0.023948 9.088214 -0.011974
1311875132.701314 0.023948 9.088214 -0.011974
1311875132.704574 0.023948 8.896631 -0.011974
1311875132.705514 0.023948 8.896631 -0.011974
1311875132.708683 0.023948 8.896631 0.179609
1311875132.709688 0.023948 8.896631 0.179609
1311875132.712806 0.023948 9.040318 0.035922
1311875132.713931 0.023948 9.040318 0.035922
1311875132.715450 0.023948 9.040318 0.035922
1311875132.716557 0.023948 9.040318 0.035922
1311875132.719670 0.035922 8.752944 0.371192
1311875132.720787 0.035922 8.752944 0.371192
1311875132.724273 0.371192 8.800840 0.754358
1311875132.725422 0.371192 8.800840 0.754358
1311875132.728561 0.371192 8.717022 0.754358
1311875132.729578 0.371192 8.717022 0.754358
1311875132.730793 0.371192 8.717022 0.754358
1311875132.731787 0.371192 8.717022 0.754358
1311875132.735432 0.227505 8.513465 0.754358
1311875132.736404 0.227505 8.513465 0.754358
1311875132.739661 0.023948 8.705048 0.754358
1311875132.740661 0.023948 8.705048 0.754358
1311875132.743921 0.119739 8.705048 1.041732
1311875132.745276 0.119739 8.705048 1.041732
1311875132.748561 0.119739 8.705048 1.089628
1311875132.749570 0.119739 8.705048 1.089628
1311875132.750790 0.119739 8.705048 1.089628
1311875132.751779 0.119739 8.705048 1.089628
1311875132.755427 0.023948 8.896631 0.706462
1311875132.756411 0.023948 8.896631 0.706462
1311875132.759549 -0.167635 8.896631 0.754358
1311875132.760691 -0.167635 8.896631 0.754358
1311875132.763803 -0.167635 9.184006 0.754358
1311875132.764936 -0.167635 9.184006 0.754358
1311875132.768442 -0.167635 9.279797 0.754358
1311875132.769440 -0.167635 9.279797 0.754358
1311875132.770661 -0.167635 9.279797 0.754358
1311875132.771663 -0.167635 9.279797 0.754358
1311875132.774737 -0.311322 9.279797 0.754358
1311875132.775643 -0.311322 9.279797 0.754358
1311875132.779314 -0.347244 9.471380 0.850149
1311875132.780289 -0.347244 9.471380 0.850149
1311875132.783553 -0.167635 9.471380 0.945941
1311875132.784536 -0.167635 9.471380 0.945941
1311875132.785793 -0.167635 9.471380 0.945941
1311875132.786764 -0.167635 9.471380 0.945941
1311875132.790422 -0.263426 9.471380 0.754358
1311875132.791423 -0.263426 9.471380 0.754358
1311875132.794547 -0.335270 9.495328 0.754358
1311875132.795647 -0.335270 9.495328 0.754358
1311875132.798935 -0.263426 9.662963 0.945941
1311875132.799908 -0.263426 9.662963 0.945941
1311875132.803427 -0.059870 9.662963 0.945941
1311875132.804542 -0.059870 9.662963 0.945941
1311875132.805670 -0.059870 9.662963 0.945941
1311875132.806648 -0.059870 9.662963 0.945941
1311875132.809647 -0.059870 9.662963 0.945941
1311875132.810803 -0.059870 9.662963 0.945941
1311875132.814281 0.023948 9.758754 0.850149
1311875132.815282 0.023948 9.758754 0.850149
1311875132.818528 0.023948 9.758754 0.766332
1311875132.819523 0.023948 9.758754 0.766332
1311875132.820774 0.023948 9.758754 0.766332
1311875132.821769 0.023948 9.758754 0.766332
1311875132.825429 0.023948 9.662963 0.562775
1311875132.826406 0.023948 9.662963 0.562775
1311875132.829698 0.227505 9.830598 0.466983
1311875132.830645 0.227505 9.830598 0.466983
1311875132.834306 0.227505 9.758754 0.562775
1311875132.835421 0.227505 9.758754 0.562775
1311875132.836408 0.227505 9.758754 0.562775
1311875132.840229 0.035922 9.854546 0.275400
1311875132.841317 0.035922 9.854546 0.275400
1311875132.844398 0.023948 9.662963 0.179609
1311875132.845396 0.023948 9.662963 0.179609
1311875132.848686 0.023948 9.519276 0.179609
1311875132.849690 0.023948 9.519276 0.179609
1311875132.851182 0.023948 9.519276 0.179609
1311875132.852296 0.023948 9.519276 0.179609
1311875132.855393 0.071844 9.662963 0.179609
1311875132.856514 0.071844 9.662963 0.179609
1311875132.859677 0.071844 9.471380 0.179609
1311875132.860858 0.071844 9.471380 0.179609
1311875132.864287 0.023948 9.567171 0.083818
1311875132.865283 0.023948 9.567171 0.083818
1311875132.868671 0.023948 9.567171 0.371192
1311875132.869666 0.023948 9.567171 0.371192
1311875132.870772 0.023948 9.567171 0.371192
1311875132.871893 0.023948 9.567171 0.371192
1311875132.875396 0.227505 9.662963 0.371192
1311875132.876400 0.227505 9.662963 0.371192
1311875132.879542 0.227505 9.662963 0.347244
1311875132.880695 0.227505 9.662963 0.347244
1311875132.883796 0.323296 9.662963 0.466983
1311875132.884911 0.323296 9.662963 0.466983
1311875132.888392 0.407114 9.483354 0.371192
1311875132.889539 0.407114 9.483354 0.371192
1311875132.890674 0.407114 9.483354 0.371192
1311875132.891812 0.407114 9.483354 0.371192
1311875132.895293 0.407114 9.471380 0.371192
1311875132.896483 0.407114 9.471380 0.371192
1311875132.899539 0.407114 9.662963 0.371192
1311875132.900653 0.407114 9.662963 0.371192
1311875132.903546 0.502905 9.758754 0.371192
1311875132.904671 0.502905 9.758754 0.371192
1311875132.906262 0.502905 9.758754 0.371192
1311875132.909437 0.598697 9.806650 0.371192
1311875132.910403 0.598697 9.806650 0.371192
1311875132.913527 0.502905 9.854546 0.323296
1311875132.914560 0.502905 9.854546 0.323296
1311875132.915800 0.502905 9.854546 0.323296
1311875132.916922 0.502905 9.854546 0.323296
1311875132.920426 0.502905 9.662963 -0.203557
1311875132.921397 0.502905 9.662963 -0.203557
1311875132.924663 0.754358 9.662963 -0.107765
1311875132.925654 0.754358 9.662963 -0.107765
1311875132.929492 0.790279 9.662963 -0.107765
1311875132.930403 0.790279 9.662963 -0.107765
1311875132.931429 0.790279 9.662963 -0.107765
1311875132.934663 0.598697 9.471380 -0.203557
1311875132.935662 0.598697 9.471380 -0.203557
1311875132.938776 0.598697 9.471380 -0.023948
1311875132.939911 0.598697 9.471380 -0.023948
1311875132.943413 0.706462 9.459406 -0.347244
1311875132.944535 0.706462 9.459406 -0.347244
1311875132.945769 0.706462 9.459406 -0.347244
1311875132.946786 0.706462 9.459406 -0.347244
1311875132.950411 0.598697 9.279797 -0.419088
1311875132.951434 0.598697 9.279797 -0.419088
1311875132.954669 0.502905 9.459406 -0.490931
1311875132.955638 0.502905 9.459406 -0.490931
1311875132.958951 0.598697 9.459406 -0.490931
1311875132.960295 0.598697 9.459406 -0.490931
1311875132.963639 0.790279 9.471380 -0.682514
1311875132.964528 0.790279 9.471380 -0.682514
1311875132.965779 0.790279 9.471380 -0.682514
1311875132.966782 0.790279 9.471380 -0.682514
1311875132.970414 0.455009 9.471380 -0.395140
1311875132.971393 0.455009 9.471380 -0.395140
1311875132.974665 0.323296 9.495328 -0.490931
1311875132.975649 0.323296 9.495328 -0.490931
1311875132.979284 0.119739 9.567171 -0.395140
1311875132.980298 0.119739 9.567171 -0.395140
1311875132.983547 0.119739 9.662963 -0.395140
1311875132.984655 0.119739 9.662963 -0.395140
1311875132.985781 0.119739 9.662963 -0.395140
1311875132.986905 0.119739 9.662963 -0.395140
1311875132.990428 0.071844 9.950337 -0.011974
1311875132.991442 0.071844 9.950337 -0.011974
1311875132.994755 0.023948 10.046129 0.371192
1311875132.995671 0.023948 10.046129 0.371192
1311875132.999276 0.119739 10.141920 0.371192
1311875133.000521 0.119739 10.141920 0.371192
1311875133.001413 0.119739 10.141920 0.371192
1311875133.004648 0.227505 10.237712 0.562775
1311875133.005647 0.227505 10.237712 0.562775
1311875133.009281 0.407114 10.237712 0.754358
1311875133.010279 0.407114 10.237712 0.754358
1311875133.013716 0.407114 10.429294 0.945941
1311875133.014667 0.407114 10.429294 0.945941
1311875133.015662 0.407114 10.429294 0.945941
1311875133.019276 0.227505 10.429294 0.945941
1311875133.020265 0.227505 10.429294 0.945941
1311875133.023533 0.407114 10.429294 1.089628
1311875133.024534 0.407114 10.429294 1.089628
1311875133.025780 0.407114 10.429294 1.089628
1311875133.026822 0.407114 10.429294 1.089628
1311875133.030480 0.371192 10.429294 1.041732
1311875133.031405 0.371192 10.429294 1.041732
1311875133.034669 0.407114 10.429294 0.945941
1311875133.035636 0.407114 10.429294 0.945941
1311875133.038891 0.323296 10.429294 1.113576
1311875133.040260 0.323296 10.429294 1.113576
1311875133.043443 0.119739 10.237712 0.850149
1311875133.044532 0.119739 10.237712 0.850149
1311875133.045808 0.119739 10.237712 0.850149
1311875133.046786 0.119739 10.237712 0.850149
1311875133.050281 0.047896 10.237712 0.754358
1311875133.051270 0.047896 10.237712 0.754358
1311875133.054534 0.119739 10.237712 0.945941
1311875133.055655 0.119739 10.237712 0.945941
1311875133.058792 0.023948 10.189816 0.945941
1311875133.059800 0.023948 10.189816 0.945941
1311875133.063409 0.119739 9.950337 0.945941
1311875133.064418 0.119739 9.950337 0.945941
1311875133.065636 0.119739 9.950337 0.945941
1311875133.066659 0.119739 9.950337 0.945941
1311875133.069784 0.023948 9.902441 0.754358
1311875133.070760 0.023948 9.902441 0.754358
1311875133.074331 0.047896 9.830598 0.742384
1311875133.075276 0.047896 9.830598 0.742384
1311875133.078547 0.023948 9.758754 0.706462
1311875133.079549 0.023948 9.758754 0.706462
1311875133.080803 0.023948 9.758754 0.706462
1311875133.081800 0.023948 9.758754 0.706462
1311875133.085420 0.071844 9.662963 0.706462
1311875133.086405 0.071844 9.662963 0.706462
1311875133.089653 0.071844 9.471380 0.562775
1311875133.090697 0.071844 9.471380 0.562775
1311875133.094289 0.071844 9.471380 0.371192
1311875133.095279 0.071844 9.471380 0.371192
1311875133.096272 0.071844 9.471380 0.371192
1311875133.099647 0.023948 9.662963 0.562775
1311875133.100638 0.023948 9.662963 0.562775
1311875133.104298 0.119739 9.662963 0.395140
1311875133.105257 0.119739 9.662963 0.395140
1311875133.108560 0.035922 9.662963 0.706462
1311875133.109686 0.035922 9.662963 0.706462
1311875133.110817 0.035922 9.662963 0.706462
1311875133.111904 0.035922 9.662963 0.706462
1311875133.115427 0.119739 9.662963 0.706462
1311875133.116418 0.119739 9.662963 0.706462
1311875133.119645 0.071844 9.806650 0.562775
1311875133.120638 0.071844 9.806650 0.562775
1311875133.124272 0.227505 9.806650 0.658566
1311875133.125389 0.227505 9.806650 0.658566
1311875133.128558 0.227505 9.758754 0.562775
1311875133.129531 0.227505 9.758754 0.562775
1311875133.130795 0.227505 9.758754 0.562775
1311875133.131786 0.227505 9.758754 0.562775
1311875133.135417 0.395140 9.662963 0.371192
1311875133.136402 0.395140 9.662963 0.371192
1311875133.139653 0.407114 9.662963 0.562775
1311875133.140630 0.407114 9.662963 0.562775
1311875133.143972 0.407114 9.662963 0.371192
1311875133.145288 0.407114 9.662963 0.371192
1311875133.148534 0.407114 9.495328 0.562775
1311875133.149541 0.407114 9.495328 0.562775
1311875133.150794 0.407114 9.495328 0.562775
1311875133.151756 0.407114 9.495328 0.562775
1311875133.155274 0.407114 9.423484 0.562775
1311875133.156406 0.407114 9.423484 0.562775
1311875133.159530 0.407114 9.423484 0.730410
1311875133.160639 0.407114 9.423484 0.730410
1311875133.164305 0.407114 9.279797 0.945941
1311875133.165267 0.407114 9.279797 0.945941
1311875133.168546 0.407114 9.184006 0.754358
1311875133.169563 0.407114 9.184006 0.754358
1311875133.170781 0.407114 9.184006 0.754358
1311875133.171775 0.407114 9.184006 0.754358
1311875133.175413 0.395140 9.184006 0.754358
1311875133.176404 0.395140 9.184006 0.754358
1311875133.179673 0.407114 9.279797 0.658566
1311875133.180649 0.407114 9.279797 0.658566
1311875133.183782 0.407114 9.423484 0.730410
1311875133.185282 0.407114 9.423484 0.730410
1311875133.188516 0.371192 9.471380 0.562775
1311875133.189522 0.371192 9.471380 0.562775
1311875133.190842 0.371192 9.471380 0.562775
1311875133.191820 0.371192 9.471380 0.562775
1311875133.195285 0.323296 9.471380 0.466983
1311875133.196459 0.323296 9.471380 0.466983
1311875133.199662 0.371192 9.567171 0.419088
1311875133.200641 0.371192 9.567171 0.419088
1311875133.203907 0.407114 9.471380 0.562775
1311875133.205567 0.407114 9.471380 0.562775
1311875133.208516 0.431062 9.567171 0.371192
1311875133.209567 0.431062 9.567171 0.371192
1311875133.210772 0.431062 9.567171 0.371192
1311875133.211760 0.431062 9.567171 0.371192
1311875133.215279 0.407114 9.471380 0.562775
1311875133.216418 0.407114 9.471380 0.562775
1311875133.219548 0.407114 9.471380 0.419088
1311875133.220646 0.407114 9.471380 0.419088
1311875133.224293 0.598697 9.375588 0.706462
1311875133.225273 0.598697 9.375588 0.706462
1311875133.228560 0.598697 9.375588 0.742384
1311875133.229570 0.598697 9.375588 0.742384
1311875133.230802 0.598697 9.375588 0.742384
1311875133.231780 0.598697 9.375588 0.742384
1311875133.235434 0.502905 9.423484 0.706462
1311875133.236395 0.502905 9.423484 0.706462
1311875133.239667 0.598697 9.375588 0.466983
1311875133.240655 0.598697 9.375588 0.466983
1311875133.244283 0.455009 9.279797 0.562775
1311875133.245258 0.455009 9.279797 0.562775
1311875133.248555 0.407114 9.375588 0.371192
1311875133.249545 0.407114 9.375588 0.371192
1311875133.250773 0.407114 9.375588 0.371192
1311875133.251780 0.407114 9.375588 0.371192
1311875133.255404 0.455009 9.471380 0.371192
1311875133.256536 0.455009 9.471380 0.371192
1311875133.259693 0.502905 9.375588 0.371192
1311875133.260701 0.502905 9.375588 0.371192
1311875133.264270 0.502905 9.471380 0.371192
1311875133.265255 0.502905 9.471380 0.371192
1311875133.268539 0.598697 9.471380 0.359218
1311875133.269529 0.598697 9.471380 0.359218
1311875133.270772 0.598697 9.471380 0.359218
1311875133.271782 0.598697 9.471380 0.359218
1311875133.275268 0.598697 9.471380 0.371192
1311875133.276411 0.598697 9.471380 0.371192
1311875133.279554 0.502905 9.375588 0.371192
1311875133.280667 0.502905 9.375588 0.371192
1311875133.283793 0.371192 9.279797 0.466983
1311875133.285268 0.371192 9.279797 0.466983
1311875133.288530 0.419088 9.423484 0.371192
1311875133.289515 0.419088 9.423484 0.371192
1311875133.290808 0.419088 9.423484 0.371192
1311875133.291779 0.419088 9.423484 0.371192
1311875133.295298 0.598697 9.471380 0.359218
1311875133.296390 0.598697 9.471380 0.359218
1311875133.299543 0.598697 9.471380 0.562775
1311875133.300647 0.598697 9.471380 0.562775
1311875133.303650 0.598697 9.471380 0.706462
1311875133.304647 0.598697 9.471380 0.706462
1311875133.307908 0.706462 9.471380 0.706462
1311875133.309273 0.706462 9.471380 0.706462
1311875133.310399 0.706462 9.471380 0.706462
1311875133.311524 0.706462 9.471380 0.706462
1311875133.314660 0.706462 9.471380 0.754358
1311875133.315653 0.706462 9.471380 0.754358
1311875133.319294 0.754358 9.567171 0.754358
1311875133.320264 0.754358 9.567171 0.754358
1311875133.323530 0.598697 9.662963 0.766332
1311875133.324517 0.598697 9.662963 0.766332
1311875133.325779 0.598697 9.662963 0.766332
1311875133.326779 0.598697 9.662963 0.766332
1311875133.330407 0.802253 9.662963 0.754358
1311875133.331401 0.802253 9.662963 0.754358
1311875133.334533 0.598697 9.662963 0.754358
1311875133.335645 0.598697 9.662963 0.754358
1311875133.339273 0.502905 9.662963 0.562775
1311875133.340382 0.502905 9.662963 0.562775
1311875133.341385 0.502905 9.662963 0.562775
1311875133.344662 0.407114 9.662963 0.658566
1311875133.345653 0.407114 9.662963 0.658566
1311875133.349286 0.407114 9.662963 0.754358
1311875133.350261 0.407114 9.662963 0.754358
1311875133.351274 0.407114 9.662963 0.754358
1311875133.354647 0.407114 9.662963 0.562775
1311875133.355631 0.407114 9.662963 0.562775
1311875133.359320 0.431062 9.758754 0.395140
1311875133.360411 0.431062 9.758754 0.395140
1311875133.361410 0.431062 9.758754 0.395140
1311875133.364667 0.502905 9.758754 0.562775
1311875133.365680 0.502905 9.758754 0.562775
1311875133.369545 0.455009 9.830598 0.562775
1311875133.370377 0.455009 9.830598 0.562775
1311875133.371379 0.455009 9.830598 0.562775
1311875133.374648 0.598697 9.758754 0.562775
1311875133.375660 0.598697 9.758754 0.562775
1311875133.378804 0.802253 9.662963 0.562775
1311875133.379897 0.802253 9.662963 0.562775
1311875133.383418 0.754358 9.567171 0.562775
1311875133.384847 0.754358 9.567171 0.562775
1311875133.385645 0.754358 9.567171 0.562775
1311875133.386643 0.754358 9.567171 0.562775
1311875133.389775 0.598697 9.471380 0.562775
1311875133.390768 0.598697 9.471380 0.562775
1311875133.394280 0.802253 9.471380 0.419088
1311875133.395404 0.802253 9.471380 0.419088
1311875133.398528 0.802253 9.375588 0.323296
1311875133.399649 0.802253 9.375588 0.323296
1311875133.400901 0.802253 9.375588 0.323296
1311875133.401927 0.802253 9.375588 0.323296
1311875133.405398 0.802253 9.184006 0.371192
1311875133.406510 0.802253 9.184006 0.371192
1311875133.409639 0.706462 9.088214 0.275400
1311875133.410770 0.706462 9.088214 0.275400
1311875133.414283 0.502905 9.088214 0.371192
1311875133.415412 0.502905 9.088214 0.371192
1311875133.419286 0.598697 9.136110 0.371192
1311875133.420268 0.598697 9.136110 0.371192
1311875133.421274 0.598697 9.136110 0.371192
1311875133.424533 0.455009 9.279797 0.371192
1311875133.425519 0.455009 9.279797 0.371192
1311875133.428666 0.598697 9.279797 0.179609
1311875133.429649 0.598697 9.279797 0.179609
1311875133.433478 0.598697 9.375588 0.083818
1311875133.434394 0.598697 9.375588 0.083818
1311875133.435385 0.598697 9.375588 0.083818
1311875133.438829 0.419088 9.471380 -0.011974
1311875133.439652 0.419088 9.471380 -0.011974
1311875133.440759 0.419088 9.471380 -0.011974
1311875133.444283 0.502905 9.423484 -0.011974
1311875133.445265 0.502905 9.423484 -0.011974
1311875133.448545 0.419088 9.471380 0.083818
1311875133.449520 0.419088 9.471380 0.083818
1311875133.450781 0.419088 9.471380 0.083818
1311875133.451774 0.419088 9.471380 0.083818
1311875133.455478 0.502905 9.471380 0.179609
1311875133.456380 0.502905 9.471380 0.179609
1311875133.459652 0.502905 9.471380 0.371192
1311875133.460648 0.502905 9.471380 0.371192
1311875133.464398 0.455009 9.375588 0.323296
1311875133.465278 0.455009 9.375588 0.323296
1311875133.468535 0.706462 9.471380 0.562775
1311875133.469528 0.706462 9.471380 0.562775
1311875133.470754 0.706462 9.471380 0.562775
1311875133.471748 0.706462 9.471380 0.562775
1311875133.475423 0.419088 9.471380 0.706462
1311875133.476419 0.419088 9.471380 0.706462
1311875133.479641 0.407114 9.279797 0.754358
1311875133.480632 0.407114 9.279797 0.754358
1311875133.483789 0.502905 9.375588 0.754358
1311875133.485260 0.502905 9.375588 0.754358
1311875133.488510 0.419088 9.459406 0.802253
1311875133.489525 0.419088 9.459406 0.802253
1311875133.490793 0.419088 9.459406 0.802253
1311875133.491777 0.419088 9.459406 0.802253
1311875133.495297 0.431062 9.279797 0.754358
1311875133.496372 0.431062 9.279797 0.754358
1311875133.499529 0.502905 9.184006 0.802253
1311875133.500662 0.502905 9.184006 0.802253
1311875133.503660 0.598697 9.279797 0.658566
1311875133.504659 0.598697 9.279797 0.658566
1311875133.507909 0.502905 9.423484 0.754358
1311875133.509392 0.502905 9.423484 0.754358
1311875133.510519 0.502905 9.423484 0.754358
1311875133.511515 0.502905 9.423484 0.754358
1311875133.514650 0.502905 9.375588 0.754358
1311875133.515641 0.502905 9.375588 0.754358
1311875133.519312 0.455009 9.375588 0.562775
1311875133.520387 0.455009 9.375588 0.562775
1311875133.523522 0.598697 9.459406 0.359218
1311875133.524513 0.598697 9.459406 0.359218
1311875133.525778 0.598697 9.459406 0.359218
1311875133.526766 0.598697 9.459406 0.359218
1311875133.530419 0.407114 9.471380 0.562775
1311875133.531402 0.407114 9.471380 0.562775
1311875133.534661 0.407114 9.471380 0.658566
1311875133.535647 0.407114 9.471380 0.658566
1311875133.539267 0.455009 9.459406 0.730410
1311875133.540246 0.455009 9.459406 0.730410
1311875133.543557 0.407114 9.447432 0.754358
1311875133.544534 0.407114 9.447432 0.754358
1311875133.545799 0.407114 9.447432 0.754358
1311875133.546783 0.407114 9.447432 0.754358
1311875133.550292 0.502905 9.184006 0.706462
1311875133.551405 0.502905 9.184006 0.706462
1311875133.554645 0.455009 9.184006 0.562775
1311875133.555639 0.455009 9.184006 0.562775
1311875133.559263 0.431062 9.088214 0.850149
1311875133.560395 0.431062 9.088214 0.850149
1311875133.561439 0.431062 9.088214 0.850149
1311875133.564688 0.598697 9.088214 0.802253
1311875133.565664 0.598697 9.088214 0.802253
1311875133.569303 0.598697 9.088214 0.706462
1311875133.570257 0.598697 9.088214 0.706462
1311875133.573510 0.502905 9.088214 0.778306
1311875133.574515 0.502905 9.088214 0.778306
1311875133.575758 0.502905 9.088214 0.778306
1311875133.576777 0.502905 9.088214 0.778306
1311875133.580415 0.754358 8.992423 0.766332
1311875133.581399 0.754358 8.992423 0.766332
1311875133.584527 0.598697 9.040318 0.754358
1311875133.585882 0.598697 9.040318 0.754358
1311875133.588644 0.598697 9.076240 0.754358
1311875133.589646 0.598697 9.076240 0.754358
1311875133.591269 0.598697 9.076240 0.754358
1311875133.594408 0.706462 9.088214 0.754358
1311875133.595426 0.706462 9.088214 0.754358
1311875133.598673 0.790279 9.088214 0.466983
1311875133.599645 0.790279 9.088214 0.466983
1311875133.603279 0.706462 9.088214 0.658566
1311875133.604271 0.706462 9.088214 0.658566
1311875133.605532 0.706462 9.088214 0.658566
1311875133.606506 0.706462 9.088214 0.658566
1311875133.609768 0.802253 9.088214 0.562775
1311875133.610772 0.802253 9.088214 0.562775
1311875133.614262 0.598697 9.112162 0.562775
1311875133.615266 0.598697 9.112162 0.562775
1311875133.618528 0.706462 9.088214 0.706462
1311875133.619524 0.706462 9.088214 0.706462
1311875133.620790 0.706462 9.088214 0.706462
1311875133.621778 0.706462 9.088214 0.706462
1311875133.625388 0.706462 9.076240 0.562775
1311875133.627070 0.706462 9.076240 0.562775
1311875133.629650 0.598697 8.896631 0.419088
1311875133.630707 0.598697 8.896631 0.419088
1311875133.634317 0.802253 8.992423 0.658566
1311875133.635255 0.802253 8.992423 0.658566
1311875133.638434 0.790279 8.896631 0.658566
1311875133.639504 0.790279 8.896631 0.658566
1311875133.640797 0.790279 8.896631 0.658566
1311875133.641747 0.790279 8.896631 0.658566
1311875133.645274 0.802253 8.896631 0.562775
1311875133.646411 0.802253 8.896631 0.562775
1311875133.649542 0.598697 8.896631 0.754358
1311875133.650523 0.598697 8.896631 0.754358
1311875133.653655 0.598697 8.992423 0.754358
1311875133.654644 0.598697 8.992423 0.754358
1311875133.656255 0.598697 8.992423 0.754358
1311875133.659273 0.778306 9.088214 0.754358
1311875133.660391 0.778306 9.088214 0.754358
1311875133.663533 0.802253 9.088214 0.802253
1311875133.664680 0.802253 9.088214 0.802253
1311875133.665921 0.802253 9.088214 0.802253
1311875133.667274 0.802253 9.088214 0.802253
1311875133.670521 0.754358 9.375588 0.730410
1311875133.671532 0.754358 9.375588 0.730410
1311875133.674662 0.814227 9.471380 0.754358
1311875133.675632 0.814227 9.471380 0.754358
1311875133.679384 0.838175 9.567171 0.562775
1311875133.680388 0.838175 9.567171 0.562775
1311875133.683529 0.802253 9.567171 0.562775
1311875133.684524 0.802253 9.567171 0.562775
1311875133.685757 0.802253 9.567171 0.562775
1311875133.686753 0.802253 9.567171 0.562775
1311875133.690444 0.993836 9.495328 0.466983
1311875133.691401 0.993836 9.495328 0.466983
1311875133.694660 1.089628 9.471380 0.419088
1311875133.695669 1.089628 9.471380 0.419088
1311875133.699269 0.993836 9.471380 0.371192
1311875133.700293 0.993836 9.471380 0.371192
1311875133.701252 0.993836 9.471380 0.371192
1311875133.704650 0.993836 9.471380 0.347244
1311875133.705705 0.993836 9.471380 0.347244
1311875133.709263 0.886071 9.279797 0.383166
1311875133.710405 0.886071 9.279797 0.383166
1311875133.711395 0.886071 9.279797 0.383166
1311875133.714675 0.993836 9.184006 0.179609
1311875133.715632 0.993836 9.184006 0.179609
1311875133.719294 0.886071 9.088214 0.359218
1311875133.720279 0.886071 9.088214 0.359218
1311875133.723540 0.802253 9.088214 0.179609
1311875133.724653 0.802253 9.088214 0.179609
1311875133.725865 0.802253 9.088214 0.179609
1311875133.726955 0.802253 9.088214 0.179609
1311875133.730411 0.802253 9.088214 0.275400
1311875133.731395 0.802253 9.088214 0.275400
1311875133.734653 0.790279 9.088214 0.179609
1311875133.735641 0.790279 9.088214 0.179609
1311875133.739264 0.802253 9.088214 0.371192
1311875133.740366 0.802253 9.088214 0.371192
1311875133.743543 0.886071 9.136110 0.466983
1311875133.744536 0.886071 9.136110 0.466983
1311875133.745771 0.886071 9.136110 0.466983
1311875133.746822 0.886071 9.136110 0.466983
1311875133.750403 0.802253 9.375588 0.419088
1311875133.751378 0.802253 9.375588 0.419088
1311875133.754685 0.993836 9.471380 0.466983
1311875133.755672 0.993836 9.471380 0.466983
1311875133.759280 0.993836 9.471380 0.371192
1311875133.760387 0.993836 9.471380 0.371192
1311875133.761474 0.993836 9.471380 0.371192
1311875133.764643 0.993836 9.495328 0.395140
1311875133.765660 0.993836 9.495328 0.395140
1311875133.769262 0.993836 9.662963 0.562775
1311875133.770264 0.993836 9.662963 0.562775
1311875133.773537 0.993836 9.662963 0.754358
1311875133.774531 0.993836 9.662963 0.754358
1311875133.775752 0.993836 9.662963 0.754358
1311875133.776777 0.993836 9.662963 0.754358
1311875133.780409 0.838175 9.662963 0.754358
1311875133.781382 0.838175 9.662963 0.754358
1311875133.784654 0.802253 9.567171 0.658566
1311875133.785635 0.802253 9.567171 0.658566
1311875133.789387 0.838175 9.483354 0.562775
1311875133.790403 0.838175 9.483354 0.562775
1311875133.791386 0.838175 9.483354 0.562775
1311875133.794670 0.838175 9.567171 0.371192
1311875133.795654 0.838175 9.567171 0.371192
1311875133.799260 0.814227 9.662963 0.658566
1311875133.800251 0.814227 9.662963 0.658566
1311875133.801260 0.814227 9.662963 0.658566
1311875133.804643 0.838175 9.758754 0.706462
1311875133.805656 0.838175 9.758754 0.706462
1311875133.809263 0.993836 9.567171 0.658566
1311875133.810395 0.993836 9.567171 0.658566
1311875133.811395 0.993836 9.567171 0.658566
1311875133.814668 0.838175 9.662963 0.754358
1311875133.815665 0.838175 9.662963 0.754358
1311875133.818773 0.993836 9.471380 0.754358
1311875133.819998 0.993836 9.471380 0.754358
1311875133.823405 0.993836 9.495328 0.945941
1311875133.824515 0.993836 9.495328 0.945941
1311875133.825786 0.993836 9.495328 0.945941
1311875133.826768 0.993836 9.495328 0.945941
1311875133.830400 0.802253 9.471380 0.730410
1311875133.831420 0.802253 9.471380 0.730410
1311875133.834553 0.802253 9.471380 0.754358
1311875133.835613 0.802253 9.471380 0.754358
1311875133.838757 0.838175 9.471380 0.778306
1311875133.839782 0.838175 9.471380 0.778306
1311875133.843435 0.754358 9.471380 0.850149
1311875133.844387 0.754358 9.471380 0.850149
1311875133.845692 0.754358 9.471380 0.850149
1311875133.846657 0.754358 9.471380 0.850149
1311875133.849791 0.802253 9.471380 0.754358
1311875133.850799 0.802253 9.471380 0.754358
1311875133.854307 0.802253 9.495328 0.778306
1311875133.855268 0.802253 9.495328 0.778306
1311875133.858514 0.802253 9.662963 0.754358
1311875133.859520 0.802253 9.662963 0.754358
1311875133.860848 0.802253 9.662963 0.754358
1311875133.861768 0.802253 9.662963 0.754358
1311875133.865415 0.802253 9.662963 0.754358
1311875133.866375 0.802253 9.662963 0.754358
1311875133.869521 0.993836 9.662963 0.754358
1311875133.870652 0.993836 9.662963 0.754358
1311875133.873680 1.089628 9.567171 0.754358
1311875133.874654 1.089628 9.567171 0.754358
1311875133.876278 1.089628 9.567171 0.754358
1311875133.879389 0.993836 9.662963 0.706462
1311875133.880394 0.993836 9.662963 0.706462
1311875133.883652 1.185419 9.842572 0.371192
1311875133.884629 1.185419 9.842572 0.371192
1311875133.887902 1.173445 9.662963 0.371192
1311875133.889249 1.173445 9.662963 0.371192
1311875133.890544 1.173445 9.662963 0.371192
1311875133.891518 1.173445 9.662963 0.371192
1311875133.894682 0.993836 9.758754 0.323296
1311875133.895636 0.993836 9.758754 0.323296
1311875133.899285 0.993836 9.662963 0.083818
1311875133.900255 0.993836 9.662963 0.083818
1311875133.903518 0.993836 9.495328 -0.011974
1311875133.904513 0.993836 9.495328 -0.011974
1311875133.905772 0.993836 9.495328 -0.011974
1311875133.906769 0.993836 9.495328 -0.011974
1311875133.910261 0.993836 9.471380 -0.011974
1311875133.911261 0.993836 9.471380 -0.011974
1311875133.914542 0.993836 9.471380 -0.011974
1311875133.915540 0.993836 9.471380 -0.011974
1311875133.918459 0.886071 9.184006 0.000000
1311875133.919386 0.886071 9.184006 0.000000
1311875133.920633 0.886071 9.184006 0.000000
1311875133.921757 0.886071 9.184006 0.000000
1311875133.925270 0.993836 9.088214 0.179609
1311875133.926259 0.993836 9.088214 0.179609
1311875133.929523 1.089628 9.076240 0.179609
1311875133.930513 1.089628 9.076240 0.179609
1311875133.933640 1.173445 9.088214 0.395140
1311875133.934625 1.173445 9.088214 0.395140
1311875133.938260 1.089628 9.088214 0.371192
1311875133.939253 1.089628 9.088214 0.371192
1311875133.940495 1.089628 9.088214 0.371192
1311875133.941655 1.089628 9.088214 0.371192
1311875133.944775 1.089628 9.088214 0.371192
1311875133.945769 1.089628 9.088214 0.371192
1311875133.949282 0.993836 9.088214 0.371192
1311875133.950386 0.993836 9.088214 0.371192
1311875133.953556 1.173445 9.088214 0.395140
1311875133.954643 1.173445 9.088214 0.395140
1311875133.955765 1.173445 9.088214 0.395140
1311875133.957252 1.173445 9.088214 0.395140
1311875133.959936 1.173445 9.279797 0.419088
1311875133.961289 1.173445 9.279797 0.419088
1311875133.964512 1.089628 9.471380 0.466983
1311875133.965499 1.089628 9.471380 0.466983
1311875133.968635 1.089628 9.447432 0.562775
1311875133.969651 1.089628 9.447432 0.562775
1311875133.973257 0.993836 9.471380 0.658566
1311875133.974249 0.993836 9.471380 0.658566
1311875133.975247 0.993836 9.471380 0.658566
1311875133.978633 0.993836 9.471380 0.730410
1311875133.979634 0.993836 9.471380 0.730410
1311875133.983290 1.173445 9.662963 0.371192
1311875133.984253 1.173445 9.662963 0.371192
1311875133.985259 1.173445 9.662963 0.371192
1311875133.988657 1.161471 9.854546 0.395140
1311875133.989627 1.161471 9.854546 0.395140
1311875133.993320 1.185419 9.758754 0.359218
1311875133.994263 1.185419 9.758754 0.359218
1311875133.995516 1.185419 9.758754 0.359218
1311875133.996514 1.185419 9.758754 0.359218
1311875133.999652 1.089628 9.854546 0.083818
1311875134.000753 1.089628 9.854546 0.083818
1311875134.004255 1.089628 9.854546 0.035922
1311875134.005255 1.089628 9.854546 0.035922
1311875134.008503 0.993836 9.758754 0.035922
1311875134.009504 0.993836 9.758754 0.035922
1311875134.010767 0.993836 9.758754 0.035922
1311875134.011766 0.993836 9.758754 0.035922
1311875134.015265 0.838175 9.662963 -0.107765
1311875134.016384 0.838175 9.662963 -0.107765
1311875134.019512 0.838175 9.567171 -0.011974
1311875134.020621 0.838175 9.567171 -0.011974
1311875134.023494 0.886071 9.495328 -0.011974
1311875134.024617 0.886071 9.495328 -0.011974
1311875134.025872 0.886071 9.495328 -0.011974
1311875134.026890 0.886071 9.495328 -0.011974
1311875134.030410 0.886071 9.471380 0.179609
1311875134.031510 0.886071 9.471380 0.179609
1311875134.034656 0.838175 9.471380 0.359218
1311875134.035623 0.838175 9.471380 0.359218
1311875134.039268 0.886071 9.471380 0.323296
1311875134.041574 0.886071 9.471380 0.323296
1311875134.043500 0.993836 9.471380 0.371192
1311875134.044617 0.993836 9.471380 0.371192
1311875134.045790 0.993836 9.471380 0.371192
1311875134.046895 0.993836 9.471380 0.371192
1311875134.050387 1.089628 9.423484 0.706462
1311875134.051531 1.089628 9.423484 0.706462
1311875134.054634 1.089628 9.471380 0.754358
1311875134.055677 1.089628 9.471380 0.754358
1311875134.059305 0.993836 9.423484 0.754358
1311875134.060401 0.993836 9.423484 0.754358
1311875134.061398 0.993836 9.423484 0.754358
1311875134.064642 0.993836 9.279797 0.754358
1311875134.065614 0.993836 9.279797 0.754358
1311875134.069138 1.137524 9.279797 0.754358
1311875134.070250 1.137524 9.279797 0.754358
1311875134.073525 1.089628 9.279797 1.137524
1311875134.074651 1.089628 9.279797 1.137524
1311875134.075793 1.089628 9.279797 1.137524
1311875134.077258 1.089628 9.279797 1.137524
1311875134.079770 1.173445 9.447432 1.137524
1311875134.081750 1.173445 9.447432 1.137524
1311875134.084549 1.185419 9.423484 0.778306
1311875134.085509 1.185419 9.423484 0.778306
1311875134.088641 1.185419 9.447432 0.802253
1311875134.089644 1.185419 9.447432 0.802253
1311875134.091261 1.185419 9.447432 0.802253
1311875134.094401 1.221341 9.471380 0.945941
1311875134.095381 1.221341 9.471380 0.945941
1311875134.098660 1.221341 9.423484 0.754358
1311875134.099635 1.221341 9.423484 0.754358
1311875134.103272 1.221341 9.279797 0.466983
1311875134.104270 1.221341 9.279797 0.466983
1311875134.105500 1.221341 9.279797 0.466983
1311875134.106500 1.221341 9.279797 0.466983
1311875134.109752 1.185419 9.112162 0.754358
1311875134.110764 1.185419 9.112162 0.754358
1311875134.114407 1.089628 9.088214 0.371192
1311875134.115399 1.089628 9.088214 0.371192
1311875134.118643 0.993836 9.088214 0.371192
1311875134.119635 0.993836 9.088214 0.371192
1311875134.123280 0.993836 8.896631 0.371192
1311875134.124261 0.993836 8.896631 0.371192
1311875134.125373 0.993836 8.896631 0.371192
1311875134.128909 0.993836 9.088214 0.562775
1311875134.129768 0.993836 9.088214 0.562775
1311875134.130790 0.993836 9.088214 0.562775
1311875134.134394 0.993836 9.088214 0.466983
1311875134.135379 0.993836 9.088214 0.466983
1311875134.138528 0.993836 9.088214 0.466983
1311875134.139644 0.993836 9.088214 0.466983
1311875134.141270 0.993836 9.088214 0.466983
1311875134.144443 1.089628 9.088214 0.562775
1311875134.145442 1.089628 9.088214 0.562775
1311875134.148639 0.886071 9.279797 0.562775
1311875134.149661 0.886071 9.279797 0.562775
1311875134.150890 0.886071 9.279797 0.562775
1311875134.151884 0.886071 9.279797 0.562775
1311875134.155385 0.993836 9.279797 0.466983
1311875134.156521 0.993836 9.279797 0.466983
1311875134.159711 0.802253 9.375588 0.419088
1311875134.160785 0.802253 9.375588 0.419088
1311875134.164414 0.886071 9.375588 0.562775
1311875134.165370 0.886071 9.375588 0.562775
1311875134.168532 0.814227 9.471380 0.419088
1311875134.169669 0.814227 9.471380 0.419088
1311875134.170752 0.814227 9.471380 0.419088
1311875134.171874 0.814227 9.471380 0.419088
1311875134.175377 0.802253 9.471380 0.371192
1311875134.176492 0.802253 9.471380 0.371192
1311875134.179668 0.993836 9.519276 0.275400
1311875134.180773 0.993836 9.519276 0.275400
1311875134.184277 0.886071 9.662963 -0.011974
1311875134.185266 0.886071 9.662963 -0.011974
1311875134.188399 0.993836 9.519276 0.035922
1311875134.189507 0.993836 9.519276 0.035922
1311875134.190621 0.993836 9.519276 0.035922
1311875134.191772 0.993836 9.519276 0.035922
1311875134.195292 0.790279 9.662963 0.371192
1311875134.196390 0.790279 9.662963 0.371192
1311875134.199523 0.706462 9.567171 0.371192
1311875134.200639 0.706462 9.567171 0.371192
1311875134.204074 0.790279 9.483354 0.179609
1311875134.205252 0.790279 9.483354 0.179609
1311875134.208391 0.754358 9.471380 0.179609
1311875134.209370 0.754358 9.471380 0.179609
1311875134.210619 0.754358 9.471380 0.179609
1311875134.211632 0.754358 9.471380 0.179609
1311875134.214799 0.706462 9.471380 0.466983
1311875134.215764 0.706462 9.471380 0.466983
1311875134.219274 0.598697 9.471380 0.419088
1311875134.220366 0.598697 9.471380 0.419088
1311875134.223511 0.706462 9.471380 0.562775
1311875134.224633 0.706462 9.471380 0.562775
1311875134.225754 0.706462 9.471380 0.562775
1311875134.226790 0.706462 9.471380 0.562775
1311875134.230384 0.706462 9.471380 0.754358
1311875134.231373 0.706462 9.471380 0.754358
1311875134.234646 0.754358 9.471380 0.754358
1311875134.235606 0.754358 9.471380 0.754358
1311875134.239267 0.790279 9.447432 0.754358
1311875134.240243 0.790279 9.447432 0.754358
1311875134.241265 0.790279 9.447432 0.754358
1311875134.244660 0.598697 9.471380 0.850149
1311875134.245650 0.598697 9.471380 0.850149
1311875134.248946 0.598697 9.279797 0.850149
1311875134.249906 0.598697 9.279797 0.850149
1311875134.253402 0.455009 9.423484 0.945941
1311875134.254384 0.455009 9.423484 0.945941
1311875134.255645 0.455009 9.423484 0.945941
1311875134.256762 0.455009 9.423484 0.945941
1311875134.260390 0.502905 9.471380 1.041732
1311875134.261370 0.502905 9.471380 1.041732
1311875134.264681 0.431062 9.471380 0.945941
1311875134.265663 0.431062 9.471380 0.945941
1311875134.268606 0.502905 9.375588 1.137524
1311875134.269678 0.502905 9.375588 1.137524
1311875134.273249 0.407114 9.471380 1.137524
1311875134.274270 0.407114 9.471380 1.137524
1311875134.275522 0.407114 9.471380 1.137524
1311875134.276519 0.407114 9.471380 1.137524
1311875134.279647 0.455009 9.471380 1.137524
1311875134.280776 0.455009 9.471380 1.137524
1311875134.284247 0.455009 9.471380 1.137524
1311875134.285235 0.455009 9.471380 1.137524
1311875134.288511 0.598697 9.279797 1.137524
1311875134.289510 0.598697 9.279797 1.137524
1311875134.290866 0.598697 9.279797 1.137524
1311875134.291764 0.598697 9.279797 1.137524
1311875134.295419 0.598697 9.184006 1.125550
1311875134.296384 0.598697 9.184006 1.125550
1311875134.299546 0.754358 9.184006 1.137524
1311875134.300649 0.754358 9.184006 1.137524
1311875134.303651 0.598697 9.184006 1.329106
1311875134.304646 0.598697 9.184006 1.329106
1311875134.308245 0.598697 9.112162 0.945941
1311875134.309253 0.598697 9.112162 0.945941
1311875134.310527 0.598697 9.112162 0.945941
1311875134.311493 0.598697 9.112162 0.945941
1311875134.314801 0.598697 9.279797 0.754358
1311875134.315777 0.598697 9.279797 0.754358
1311875134.319383 0.455009 9.459406 0.658566
1311875134.320377 0.455009 9.459406 0.658566
1311875134.323529 0.407114 9.471380 0.562775
1311875134.324488 0.407114 9.471380 0.562775
1311875134.325747 0.407114 9.471380 0.562775
1311875134.326748 0.407114 9.471380 0.562775
1311875134.330384 0.419088 9.662963 0.371192
1311875134.331375 0.419088 9.662963 0.371192
1311875134.334629 0.419088 9.854546 0.419088
1311875134.335612 0.419088 9.854546 0.419088
1311875134.339240 0.407114 10.046129 0.275400
1311875134.340368 0.407114 10.046129 0.275400
1311875134.341367 0.407114 10.046129 0.275400
1311875134.344635 0.598697 9.950337 0.347244
1311875134.345637 0.598697 9.950337 0.347244
1311875134.349280 0.598697 10.046129 0.179609
1311875134.350263 0.598697 10.046129 0.179609
1311875134.351260 0.598697 10.046129 0.179609
1311875134.354636 0.502905 9.902441 0.323296
1311875134.355630 0.502905 9.902441 0.323296
1311875134.359279 0.407114 9.854546 0.275400
1311875134.360403 0.407114 9.854546 0.275400
1311875134.361388 0.407114 9.854546 0.275400
1311875134.364647 0.502905 9.806650 0.083818
1311875134.365626 0.502905 9.806650 0.083818
1311875134.369248 0.502905 9.662963 0.275400
1311875134.370390 0.502905 9.662963 0.275400
1311875134.371370 0.502905 9.662963 0.275400
1311875134.374626 0.502905 9.567171 0.371192
1311875134.375612 0.502905 9.567171 0.371192
1311875134.378886 0.502905 9.495328 0.466983
1311875134.379881 0.502905 9.495328 0.466983
1311875134.383377 0.407114 9.662963 0.347244
1311875134.384489 0.407114 9.662963 0.347244
1311875134.385753 0.407114 9.662963 0.347244
1311875134.386757 0.407114 9.662963 0.347244
1311875134.390277 0.419088 9.519276 0.371192
1311875134.391247 0.419088 9.519276 0.371192
1311875134.394595 0.502905 9.758754 0.658566
1311875134.395505 0.502905 9.758754 0.658566
1311875134.398516 0.407114 9.854546 0.562775
1311875134.399626 0.407114 9.854546 0.562775
1311875134.402760 0.407114 9.854546 0.754358
1311875134.403878 0.407114 9.854546 0.754358
1311875134.405381 0.407114 9.854546 0.754358
1311875134.406516 0.407114 9.854546 0.754358
1311875134.409640 0.407114 9.902441 0.754358
1311875134.410744 0.407114 9.902441 0.754358
1311875134.414267 0.323296 9.950337 0.754358
1311875134.415262 0.323296 9.950337 0.754358
1311875134.418518 0.227505 10.046129 0.754358
1311875134.419516 0.227505 10.046129 0.754358
1311875134.420777 0.227505 10.046129 0.754358
1311875134.421747 0.227505 10.046129 0.754358
1311875134.425380 0.227505 10.213764 0.754358
1311875134.426372 0.227505 10.213764 0.754358
1311875134.429519 0.371192 10.237712 0.754358
1311875134.430639 0.371192 10.237712 0.754358
1311875134.433648 0.227505 10.237712 0.754358
1311875134.434629 0.227505 10.237712 0.754358
1311875134.436123 0.227505 10.237712 0.754358
1311875134.439400 0.071844 10.237712 0.754358
1311875134.440396 0.071844 10.237712 0.754358
1311875134.443496 0.023948 10.237712 0.706462
1311875134.444624 0.023948 10.237712 0.706462
1311875134.446136 0.023948 10.237712 0.706462
1311875134.449372 0.023948 10.249685 0.562775
1311875134.450371 0.023948 10.249685 0.562775
1311875134.453638 0.119739 10.285607 0.562775
1311875134.454626 0.119739 10.285607 0.562775
1311875134.456246 0.119739 10.285607 0.562775
1311875134.459399 0.119739 10.261659 0.754358
1311875134.460389 0.119739 10.261659 0.754358
1311875134.463514 0.023948 10.237712 0.754358
1311875134.464677 0.023948 10.237712 0.754358
1311875134.466129 0.023948 10.237712 0.754358
1311875134.469378 0.227505 9.950337 0.754358
1311875134.470385 0.227505 9.950337 0.754358
1311875134.473497 0.071844 10.046129 0.754358
1311875134.474501 0.071844 10.046129 0.754358
1311875134.475746 0.071844 10.046129 0.754358
1311875134.476871 0.071844 10.046129 0.754358
1311875134.480373 0.023948 10.141920 0.658566
1311875134.481374 0.023948 10.141920 0.658566
1311875134.484670 0.023948 10.046129 0.754358
1311875134.485631 0.023948 10.046129 0.754358
1311875134.489293 0.023948 9.878494 0.754358
1311875134.490290 0.023948 9.878494 0.754358
1311875134.491252 0.023948 9.878494 0.754358
1311875134.494514 0.023948 9.878494 0.658566
1311875134.495627 0.023948 9.878494 0.658566
1311875134.498785 -0.167635 9.902441 0.754358
1311875134.499897 -0.167635 9.902441 0.754358
1311875134.503404 0.023948 10.046129 0.754358
1311875134.504502 0.023948 10.046129 0.754358
1311875134.505636 0.023948 10.046129 0.754358
1311875134.506746 0.023948 10.046129 0.754358
1311875134.509754 0.035922 9.854546 0.945941
1311875134.510747 0.035922 9.854546 0.945941
1311875134.514394 0.071844 9.758754 0.778306
1311875134.515389 0.071844 9.758754 0.778306
1311875134.518514 0.227505 9.854546 0.754358
1311875134.519628 0.227505 9.854546 0.754358
1311875134.521128 0.227505 9.854546 0.754358
1311875134.522240 0.227505 9.854546 0.754358
1311875134.525621 0.227505 9.758754 1.089628
1311875134.526629 0.227505 9.758754 1.089628
1311875134.529782 0.227505 9.662963 1.041732
1311875134.530780 0.227505 9.662963 1.041732
1311875134.534263 0.407114 9.567171 0.945941
1311875134.535373 0.407114 9.567171 0.945941
1311875134.538497 0.371192 9.567171 0.802253
1311875134.539617 0.371192 9.567171 0.802253
1311875134.541172 0.371192 9.567171 0.802253
1311875134.542258 0.371192 9.567171 0.802253
1311875134.545497 0.323296 9.471380 0.802253
1311875134.546499 0.323296 9.471380 0.802253
1311875134.549683 0.323296 9.567171 0.766332
1311875134.550653 0.323296 9.567171 0.766332
1311875134.554269 0.407114 9.567171 0.754358
1311875134.555376 0.407114 9.567171 0.754358
1311875134.556379 0.407114 9.567171 0.754358
1311875134.559648 0.407114 9.495328 0.658566
1311875134.560636 0.407114 9.495328 0.658566
1311875134.564253 0.227505 9.567171 0.562775
1311875134.565479 0.227505 9.567171 0.562775
1311875134.566386 0.227505 9.567171 0.562775
1311875134.569617 0.119739 9.471380 0.371192
1311875134.570625 0.119739 9.471380 0.371192
1311875134.574252 0.119739 9.423484 0.371192
1311875134.575234 0.119739 9.423484 0.371192
1311875134.578501 0.119739 9.423484 0.383166
1311875134.579514 0.119739 9.423484 0.383166
1311875134.580757 0.119739 9.423484 0.383166
1311875134.581754 0.119739 9.423484 0.383166
1311875134.585395 0.119739 9.375588 0.658566
1311875134.586502 0.119739 9.375588 0.658566
1311875134.589756 0.227505 9.279797 0.562775
1311875134.590798 0.227505 9.279797 0.562775
1311875134.594302 0.227505 9.279797 0.754358
1311875134.595515 0.227505 9.279797 0.754358
1311875134.598511 0.227505 9.279797 0.802253
1311875134.599498 0.227505 9.279797 0.802253
1311875134.600757 0.227505 9.279797 0.802253
1311875134.601750 0.227505 9.279797 0.802253
1311875134.605406 0.227505 9.375588 0.850149
1311875134.606364 0.227505 9.375588 0.850149
1311875134.609629 0.407114 9.423484 1.041732
1311875134.610622 0.407114 9.423484 1.041732
1311875134.614258 0.407114 9.375588 0.850149
1311875134.615246 0.407114 9.375588 0.850149
1311875134.618530 0.395140 9.471380 1.137524
1311875134.619525 0.395140 9.471380 1.137524
1311875134.620750 0.395140 9.471380 1.137524
1311875134.621876 0.395140 9.471380 1.137524
1311875134.625511 0.407114 9.471380 0.850149
1311875134.626513 0.407114 9.471380 0.850149
1311875134.629769 0.407114 9.567171 0.754358
1311875134.630774 0.407114 9.567171 0.754358
1311875134.634253 0.407114 9.567171 0.754358
1311875134.635237 0.407114 9.567171 0.754358
1311875134.638559 0.598697 9.519276 0.706462
1311875134.639513 0.598697 9.519276 0.706462
1311875134.640737 0.598697 9.519276 0.706462
1311875134.641738 0.598697 9.519276 0.706462
1311875134.645383 0.431062 9.423484 0.562775
1311875134.646370 0.431062 9.423484 0.562775
1311875134.649639 0.407114 9.375588 0.562775
1311875134.650617 0.407114 9.375588 0.562775
1311875134.654258 0.371192 9.279797 0.658566
1311875134.655241 0.371192 9.279797 0.658566
1311875134.656379 0.371192 9.279797 0.658566
1311875134.659693 0.227505 9.375588 0.562775
1311875134.660634 0.227505 9.375588 0.562775
1311875134.664264 0.407114 9.112162 0.562775
1311875134.665370 0.407114 9.112162 0.562775
1311875134.666363 0.407114 9.112162 0.562775
1311875134.669642 0.407114 9.088214 0.371192
1311875134.670633 0.407114 9.088214 0.371192
1311875134.674251 0.371192 9.112162 0.466983
1311875134.675230 0.371192 9.112162 0.466983
1311875134.678491 0.371192 9.088214 0.562775
1311875134.679493 0.371192 9.088214 0.562775
1311875134.680799 0.371192 9.088214 0.562775
1311875134.681752 0.371192 9.088214 0.562775
1311875134.685510 0.323296 9.184006 0.419088
1311875134.686363 0.323296 9.184006 0.419088
1311875134.689652 0.407114 9.136110 0.371192
1311875134.690635 0.407114 9.136110 0.371192
1311875134.694265 0.407114 9.279797 0.371192
1311875134.695251 0.407114 9.279797 0.371192
1311875134.698506 0.371192 9.279797 0.562775
1311875134.699482 0.371192 9.279797 0.562775
1311875134.700731 0.371192 9.279797 0.562775
1311875134.701733 0.371192 9.279797 0.562775
1311875134.705402 0.407114 9.459406 0.323296
1311875134.706361 0.407114 9.459406 0.323296
1311875134.709615 0.407114 9.471380 0.419088
1311875134.710608 0.407114 9.471380 0.419088
1311875134.714268 0.407114 9.471380 0.275400
1311875134.715258 0.407114 9.471380 0.275400
1311875134.718506 0.407114 9.471380 0.179609
1311875134.719512 0.407114 9.471380 0.179609
1311875134.720742 0.407114 9.471380 0.179609
1311875134.721746 0.407114 9.471380 0.179609
1311875134.725375 0.407114 9.471380 0.179609
1311875134.726388 0.407114 9.471380 0.179609
1311875134.729511 0.407114 9.279797 0.179609
1311875134.730629 0.407114 9.279797 0.179609
1311875134.733634 0.407114 9.279797 0.359218
1311875134.734620 0.407114 9.279797 0.359218
1311875134.738255 0.371192 9.375588 0.083818
1311875134.739239 0.371192 9.375588 0.083818
1311875134.740491 0.371192 9.375588 0.083818
1311875134.741497 0.371192 9.375588 0.083818
1311875134.744641 0.371192 9.088214 0.179609
1311875134.745752 0.371192 9.088214 0.179609
1311875134.749258 0.455009 9.088214 0.083818
1311875134.750258 0.455009 9.088214 0.083818
1311875134.753500 0.419088 9.064266 0.083818
1311875134.754502 0.419088 9.064266 0.083818
1311875134.755746 0.419088 9.064266 0.083818
1311875134.756751 0.419088 9.064266 0.083818
1311875134.760385 0.407114 9.088214 0.179609
1311875134.761374 0.407114 9.088214 0.179609
1311875134.764647 0.407114 9.088214 0.275400
1311875134.765615 0.407114 9.088214 0.275400
1311875134.769241 0.323296 9.088214 0.371192
1311875134.770257 0.323296 9.088214 0.371192
1311875134.771251 0.323296 9.088214 0.371192
1311875134.774617 0.407114 9.088214 0.323296
1311875134.775599 0.407114 9.088214 0.323296
1311875134.778883 0.371192 9.088214 0.275400
1311875134.779878 0.371192 9.088214 0.275400
1311875134.783376 0.371192 9.100188 0.179609
1311875134.785830 0.371192 9.100188 0.179609
1311875134.788251 0.407114 9.184006 0.706462
1311875134.789515 0.407114 9.184006 0.706462
1311875134.790511 0.407114 9.184006 0.706462
1311875134.791503 0.407114 9.184006 0.706462
1311875134.794765 0.407114 9.279797 0.371192
1311875134.795755 0.407114 9.279797 0.371192
1311875134.799371 0.407114 9.471380 0.371192
1311875134.800382 0.407114 9.471380 0.371192
1311875134.803634 0.407114 9.471380 0.371192
1311875134.804636 0.407114 9.471380 0.371192
1311875134.808238 0.395140 9.471380 0.083818
1311875134.809301 0.395140 9.471380 0.083818
1311875134.810482 0.395140 9.471380 0.083818
1311875134.811486 0.395140 9.471380 0.083818
1311875134.814622 0.407114 9.471380 0.275400
1311875134.815770 0.407114 9.471380 0.275400
1311875134.819255 0.371192 9.471380 0.179609
1311875134.820363 0.371192 9.471380 0.179609
1311875134.823500 0.407114 9.471380 -0.011974
1311875134.824491 0.407114 9.471380 -0.011974
1311875134.825733 0.407114 9.471380 -0.011974
1311875134.826741 0.407114 9.471380 -0.011974
1311875134.831330 0.323296 9.471380 0.275400
1311875134.833507 0.407114 9.471380 0.275400
1311875134.834505 0.407114 9.471380 0.275400
1311875134.835738 0.407114 9.471380 0.275400
1311875134.836732 0.407114 9.471380 0.275400
1311875134.840376 0.227505 9.375588 0.275400
1311875134.841364 0.227505 9.375588 0.275400
1311875134.844634 0.119739 9.471380 0.371192
1311875134.845622 0.119739 9.471380 0.371192
1311875134.849125 0.047896 9.279797 0.371192
1311875134.850370 0.047896 9.279797 0.371192
1311875134.851404 0.047896 9.279797 0.371192
1311875134.854623 0.227505 9.423484 0.562775
1311875134.855603 0.227505 9.423484 0.562775
1311875134.859275 0.047896 9.459406 0.658566
1311875134.860385 0.047896 9.459406 0.658566
1311875134.861375 0.047896 9.459406 0.658566
1311875134.864628 0.071844 9.459406 0.802253
1311875134.865618 0.071844 9.459406 0.802253
1311875134.869262 0.227505 9.279797 0.754358
1311875134.870386 0.227505 9.279797 0.754358
1311875134.871418 0.227505 9.279797 0.754358
1311875134.874614 0.227505 9.471380 0.945941
1311875134.875603 0.227505 9.471380 0.945941
1311875134.878867 0.227505 9.471380 0.945941
1311875134.879861 0.227505 9.471380 0.945941
1311875134.883381 0.023948 9.495328 1.125550
1311875134.884493 0.023948 9.495328 1.125550
1311875134.885751 0.023948 9.495328 1.125550
1311875134.886744 0.023948 9.495328 1.125550
1311875134.890256 0.227505 9.567171 1.041732
1311875134.891369 0.227505 9.567171 1.041732
1311875134.894550 0.047896 9.662963 0.945941
1311875134.895648 0.047896 9.662963 0.945941
1311875134.899136 0.227505 9.519276 1.089628
1311875134.900239 0.227505 9.519276 1.089628
1311875134.903507 0.119739 9.519276 0.850149
1311875134.904507 0.119739 9.519276 0.850149
1311875134.905739 0.119739 9.519276 0.850149
1311875134.906730 0.119739 9.519276 0.850149
1311875134.910374 0.227505 9.567171 0.754358
1311875134.911353 0.227505 9.567171 0.754358
1311875134.914519 0.071844 9.567171 0.754358
1311875134.915639 0.071844 9.567171 0.754358
1311875134.918755 0.023948 9.758754 0.754358
1311875134.919867 0.023948 9.758754 0.754358
1311875134.923504 0.023948 9.662963 0.562775
1311875134.924496 0.023948 9.662963 0.562775
1311875134.925729 0.023948 9.662963 0.562775
1311875134.926732 0.023948 9.662963 0.562775
1311875134.930568 0.023948 9.662963 0.706462
1311875134.933529 0.023948 9.471380 0.562775
1311875134.934493 0.023948 9.471380 0.562775
1311875134.935740 0.023948 9.471380 0.562775
1311875134.936729 0.023948 9.471380 0.562775
1311875134.940372 0.047896 9.471380 0.395140
1311875134.941366 0.047896 9.471380 0.395140
1311875134.944637 0.119739 9.471380 0.562775
1311875134.945624 0.119739 9.471380 0.562775
1311875134.949260 0.227505 9.279797 0.562775
1311875134.950323 0.227505 9.279797 0.562775
1311875134.951236 0.227505 9.279797 0.562775
1311875134.954670 0.227505 9.279797 0.658566
1311875134.955700 0.227505 9.279797 0.658566
1311875134.958897 0.119739 9.279797 0.658566
1311875134.960259 0.119739 9.279797 0.658566
1311875134.963398 0.371192 9.184006 0.562775
1311875134.964483 0.371192 9.184006 0.562775
1311875134.965762 0.371192 9.184006 0.562775
1311875134.966759 0.371192 9.184006 0.562775
1311875134.970390 0.371192 9.136110 0.754358
1311875134.971382 0.371192 9.136110 0.754358
1311875134.974536 0.407114 9.064266 0.658566
1311875134.975616 0.407114 9.064266 0.658566
1311875134.978747 0.371192 9.088214 0.706462
1311875134.979746 0.371192 9.088214 0.706462
1311875134.983387 0.407114 9.088214 0.658566
1311875134.984369 0.407114 9.088214 0.658566
1311875134.987263 0.407114 9.088214 0.658566
1311875134.988626 0.407114 9.088214 0.754358
1311875134.989625 0.407114 9.088214 0.754358
1311875134.993254 0.407114 9.136110 0.945941
1311875134.994268 0.407114 9.136110 0.945941
1311875134.996374 0.407114 9.136110 0.945941
1311875134.998632 0.502905 9.088214 0.778306
1311875134.999616 0.502905 9.088214 0.778306
1311875135.003246 0.706462 9.088214 0.802253
1311875135.004230 0.706462 9.088214 0.802253
1311875135.005273 0.706462 9.088214 0.802253
1311875135.008614 0.502905 9.184006 0.754358
1311875135.009603 0.502905 9.184006 0.754358
1311875135.013247 0.407114 9.136110 0.742384
1311875135.014370 0.407114 9.136110 0.742384
1311875135.015383 0.407114 9.136110 0.742384
1311875135.018518 0.502905 9.375588 0.754358
1311875135.019622 0.502905 9.375588 0.754358
1311875135.021129 0.502905 9.375588 0.754358
1311875135.022243 0.502905 9.375588 0.754358
1311875135.025501 0.455009 9.279797 0.730410
1311875135.026518 0.455009 9.279797 0.730410
1311875135.029636 0.407114 9.279797 0.754358
1311875135.030771 0.407114 9.279797 0.754358
1311875135.034253 0.407114 9.471380 0.754358
1311875135.035225 0.407114 9.471380 0.754358
1311875135.038494 0.419088 9.471380 0.754358
1311875135.039481 0.419088 9.471380 0.754358
1311875135.040726 0.419088 9.471380 0.754358
1311875135.041729 0.419088 9.471380 0.754358
1311875135.045367 0.419088 9.471380 0.754358
1311875135.046349 0.419088 9.471380 0.754358
1311875135.049623 0.419088 9.471380 0.658566
1311875135.050609 0.419088 9.471380 0.658566
1311875135.053628 0.598697 9.471380 0.658566
1311875135.054618 0.598697 9.471380 0.658566
1311875135.056226 0.598697 9.471380 0.658566
1311875135.059414 0.407114 9.567171 0.754358
1311875135.060365 0.407114 9.567171 0.754358
1311875135.063517 0.407114 9.471380 0.802253
1311875135.064600 0.407114 9.471380 0.802253
1311875135.066098 0.407114 9.471380 0.802253
1311875135.069361 0.455009 9.279797 0.562775
1311875135.070383 0.455009 9.279797 0.562775
1311875135.073615 0.407114 9.136110 0.706462
1311875135.074614 0.407114 9.136110 0.706462
1311875135.078230 0.407114 9.279797 0.562775
1311875135.079230 0.407114 9.279797 0.562775
1311875135.080484 0.407114 9.279797 0.562775
1311875135.081495 0.407114 9.279797 0.562775
1311875135.084640 0.323296 9.423484 0.562775
1311875135.085743 0.323296 9.423484 0.562775
1311875135.089464 0.371192 9.279797 0.730410
1311875135.090248 0.371192 9.279797 0.730410
1311875135.093534 0.395140 9.279797 0.658566
1311875135.094504 0.395140 9.279797 0.658566
1311875135.095746 0.395140 9.279797 0.658566
1311875135.096870 0.395140 9.279797 0.658566
1311875135.100374 0.407114 9.279797 0.658566
1311875135.101367 0.407114 9.279797 0.658566
1311875135.104610 0.407114 9.184006 0.754358
1311875135.105615 0.407114 9.184006 0.754358
1311875135.109251 0.407114 9.184006 0.754358
1311875135.110349 0.407114 9.184006 0.754358
1311875135.111345 0.407114 9.184006 0.754358
1311875135.114495 0.419088 9.136110 0.754358
1311875135.115629 0.419088 9.136110 0.754358
1311875135.118876 0.455009 9.040318 0.850149
1311875135.120235 0.455009 9.040318 0.850149
1311875135.123502 0.419088 9.040318 0.754358
1311875135.124491 0.419088 9.040318 0.754358
1311875135.125739 0.419088 9.040318 0.754358
1311875135.126753 0.419088 9.040318 0.754358
1311875135.130367 0.455009 8.896631 0.658566
1311875135.131374 0.455009 8.896631 0.658566
1311875135.134625 0.502905 9.076240 0.754358
1311875135.135592 0.502905 9.076240 0.754358
1311875135.138854 0.407114 9.076240 0.945941
1311875135.140221 0.407114 9.076240 0.945941
1311875135.143530 0.455009 9.088214 0.706462
1311875135.144477 0.455009 9.088214 0.706462
1311875135.145782 0.455009 9.088214 0.706462
1311875135.146756 0.455009 9.088214 0.706462
1311875135.150401 0.407114 9.088214 0.754358
1311875135.151382 0.407114 9.088214 0.754358
1311875135.154519 0.407114 9.088214 0.658566
1311875135.155634 0.407114 9.088214 0.658566
1311875135.158739 0.407114 9.088214 0.706462
1311875135.159767 0.407114 9.088214 0.706462
1311875135.163357 0.395140 9.088214 0.562775
1311875135.164352 0.395140 9.088214 0.562775
1311875135.165601 0.395140 9.088214 0.562775
1311875135.166625 0.395140 9.088214 0.562775
1311875135.169770 0.407114 9.088214 0.466983
1311875135.170714 0.407114 9.088214 0.466983
1311875135.174228 0.407114 9.088214 0.562775
1311875135.175346 0.407114 9.088214 0.562775
1311875135.178490 0.407114 9.184006 0.562775
1311875135.179616 0.407114 9.184006 0.562775
1311875135.180900 0.407114 9.184006 0.562775
1311875135.182249 0.407114 9.184006 0.562775
1311875135.185520 0.119739 9.279797 0.466983
1311875135.186531 0.119739 9.279797 0.466983
1311875135.189778 0.227505 9.279797 0.371192
1311875135.190749 0.227505 9.279797 0.371192
1311875135.194361 0.227505 9.375588 0.562775
1311875135.195360 0.227505 9.375588 0.562775
1311875135.198466 0.227505 9.471380 0.562775
1311875135.199593 0.227505 9.471380 0.562775
1311875135.200880 0.227505 9.471380 0.562775
1311875135.202247 0.227505 9.471380 0.562775
1311875135.205229 0.227505 9.471380 0.658566
1311875135.206244 0.227505 9.471380 0.658566
1311875135.207262 0.227505 9.471380 0.658566
1311875135.210626 0.227505 9.279797 0.658566
1311875135.211595 0.227505 9.279797 0.658566
1311875135.214643 0.407114 9.279797 0.658566
1311875135.215613 0.407114 9.279797 0.658566
1311875135.219260 0.227505 9.423484 0.658566
1311875135.220214 0.227505 9.423484 0.658566
1311875135.223522 0.227505 9.423484 0.730410
1311875135.224496 0.227505 9.423484 0.730410
1311875135.225766 0.227505 9.423484 0.730410
1311875135.226716 0.227505 9.423484 0.730410
1311875135.230283 0.323296 9.375588 0.658566
1311875135.231364 0.323296 9.375588 0.658566
1311875135.234635 0.227505 9.279797 0.562775
1311875135.235624 0.227505 9.279797 0.562775
1311875135.239228 0.035922 9.279797 0.754358
1311875135.240346 0.035922 9.279797 0.754358
1311875135.241348 0.035922 9.279797 0.754358
1311875135.244758 0.227505 9.279797 0.419088
1311875135.245766 0.227505 9.279797 0.419088
1311875135.249499 0.119739 9.184006 0.419088
1311875135.250376 0.119739 9.184006 0.419088
1311875135.253505 0.071844 9.375588 0.419088
1311875135.254624 0.071844 9.375588 0.419088
1311875135.255741 0.071844 9.375588 0.419088
1311875135.257220 0.071844 9.375588 0.419088
1311875135.260499 0.023948 9.375588 0.562775
1311875135.261475 0.023948 9.375588 0.562775
1311875135.264773 0.023948 9.375588 0.562775
1311875135.265767 0.023948 9.375588 0.562775
1311875135.269254 0.023948 9.459406 0.706462
1311875135.270253 0.023948 9.459406 0.706462
1311875135.273595 0.023948 9.375588 0.371192
1311875135.274588 0.023948 9.375588 0.371192
1311875135.275837 0.023948 9.375588 0.371192
1311875135.277267 0.023948 9.375588 0.371192
1311875135.280526 0.023948 9.519276 0.754358
1311875135.281502 0.023948 9.519276 0.754358
1311875135.284765 0.071844 9.471380 0.706462
1311875135.285772 0.071844 9.471380 0.706462
1311875135.289238 0.119739 9.519276 0.742384
1311875135.290221 0.119739 9.519276 0.742384
1311875135.293519 0.023948 9.662963 0.850149
1311875135.294472 0.023948 9.662963 0.850149
1311875135.295709 0.023948 9.662963 0.850149
1311875135.296867 0.023948 9.662963 0.850149
1311875135.300386 0.023948 9.662963 0.754358
1311875135.301348 0.023948 9.662963 0.754358
1311875135.304624 0.023948 9.758754 0.802253
1311875135.305623 0.023948 9.758754 0.802253
1311875135.309256 0.023948 9.662963 0.945941
1311875135.310244 0.023948 9.662963 0.945941
1311875135.311240 0.023948 9.662963 0.945941
1311875135.314524 0.023948 9.806650 0.945941
1311875135.315638 0.023948 9.806650 0.945941
1311875135.318742 0.119739 9.830598 0.802253
1311875135.319871 0.119739 9.830598 0.802253
1311875135.323348 0.023948 9.662963 0.945941
1311875135.324499 0.023948 9.662963 0.945941
1311875135.325756 0.023948 9.662963 0.945941
1311875135.326775 0.023948 9.662963 0.945941
1311875135.330279 0.071844 9.830598 1.041732
1311875135.331374 0.071844 9.830598 1.041732
1311875135.334498 0.119739 9.854546 0.945941
1311875135.335486 0.119739 9.854546 0.945941
1311875135.338639 0.227505 9.806650 0.754358
1311875135.339586 0.227505 9.806650 0.754358
1311875135.343244 0.047896 9.662963 0.850149
1311875135.344389 0.047896 9.662963 0.850149
1311875135.345391 0.047896 9.662963 0.850149
1311875135.348626 0.227505 9.662963 0.754358
1311875135.349638 0.227505 9.662963 0.754358
1311875135.353104 0.227505 9.662963 0.754358
1311875135.354238 0.227505 9.662963 0.754358
1311875135.355502 0.227505 9.662963 0.754358
1311875135.356484 0.227505 9.662963 0.754358
1311875135.359752 0.227505 9.471380 0.562775
1311875135.360739 0.227505 9.471380 0.562775
1311875135.364239 0.227505 9.471380 0.562775
1311875135.365371 0.227505 9.471380 0.562775
1311875135.368476 0.227505 9.519276 0.562775
1311875135.369510 0.227505 9.519276 0.562775
1311875135.370756 0.227505 9.519276 0.562775
1311875135.371749 0.227505 9.519276 0.562775
1311875135.375381 0.407114 9.423484 0.658566
1311875135.376360 0.407114 9.423484 0.658566
1311875135.379616 0.227505 9.279797 0.658566
1311875135.380624 0.227505 9.279797 0.658566
1311875135.383868 0.071844 9.471380 0.754358
1311875135.385235 0.071844 9.471380 0.754358
1311875135.388486 0.227505 9.471380 0.742384
1311875135.389482 0.227505 9.471380 0.742384
1311875135.390744 0.227505 9.471380 0.742384
1311875135.391787 0.227505 9.471380 0.742384
1311875135.395234 0.227505 9.279797 0.754358
1311875135.396341 0.227505 9.279797 0.754358
1311875135.399475 0.323296 9.423484 0.754358
1311875135.400498 0.323296 9.423484 0.754358
1311875135.403628 0.227505 9.567171 1.137524
1311875135.404651 0.227505 9.567171 1.137524
1311875135.408232 0.119739 9.483354 0.945941
1311875135.409251 0.119739 9.483354 0.945941
1311875135.410473 0.119739 9.483354 0.945941
1311875135.411492 0.119739 9.483354 0.945941
1311875135.414637 0.395140 9.471380 0.802253
1311875135.415744 0.395140 9.471380 0.802253
1311875135.419278 0.323296 9.483354 0.754358
1311875135.420335 0.323296 9.483354 0.754358
1311875135.423473 0.407114 9.471380 0.802253
1311875135.424482 0.407114 9.471380 0.802253
1311875135.425747 0.407114 9.471380 0.802253
1311875135.426742 0.407114 9.471380 0.802253
1311875135.430403 0.323296 9.471380 0.754358
1311875135.431339 0.323296 9.471380 0.754358
1311875135.434490 0.407114 9.471380 0.754358
1311875135.435612 0.407114 9.471380 0.754358
1311875135.438730 0.407114 9.471380 0.850149
1311875135.439843 0.407114 9.471380 0.850149
1311875135.443350 0.371192 9.495328 0.754358
1311875135.444378 0.371192 9.495328 0.754358
1311875135.445668 0.371192 9.495328 0.754358
1311875135.446633 0.371192 9.495328 0.754358
1311875135.449741 0.323296 9.471380 0.562775
1311875135.450735 0.323296 9.471380 0.562775
1311875135.454355 0.371192 9.459406 0.754358
1311875135.455351 0.371192 9.459406 0.754358
1311875135.458771 0.227505 9.471380 0.706462
1311875135.459739 0.227505 9.471380 0.706462
1311875135.460731 0.227505 9.471380 0.706462
1311875135.464390 0.119739 9.471380 0.658566
1311875135.465376 0.119739 9.471380 0.658566
1311875135.468507 0.023948 9.519276 0.850149
1311875135.469613 0.023948 9.519276 0.850149
1311875135.470760 0.023948 9.519276 0.850149
1311875135.471895 0.023948 9.519276 0.850149
1311875135.475348 0.119739 9.471380 0.754358
1311875135.476477 0.119739 9.471380 0.754358
1311875135.479615 0.035922 9.567171 0.754358
1311875135.480787 0.035922 9.567171 0.754358
1311875135.484233 0.071844 9.567171 0.945941
1311875135.485222 0.071844 9.567171 0.945941
1311875135.488471 0.119739 9.519276 1.113576
1311875135.489604 0.119739 9.519276 1.113576
1311875135.490801 0.119739 9.519276 1.113576
1311875135.491921 0.119739 9.519276 1.113576
1311875135.495364 0.407114 9.483354 1.161471
1311875135.496477 0.407114 9.483354 1.161471
1311875135.499613 0.502905 9.471380 1.329106
1311875135.500618 0.502905 9.471380 1.329106
1311875135.503744 0.407114 9.471380 1.329106
1311875135.505230 0.407114 9.471380 1.329106
1311875135.508476 0.395140 9.567171 1.137524
1311875135.509474 0.395140 9.567171 1.137524
1311875135.510755 0.395140 9.567171 1.137524
1311875135.511714 0.395140 9.567171 1.137524
1311875135.515251 0.407114 9.567171 1.137524
1311875135.516359 0.407114 9.567171 1.137524
1311875135.519485 0.407114 9.567171 1.137524
1311875135.520605 0.407114 9.567171 1.137524
1311875135.523474 0.502905 9.567171 1.137524
1311875135.524608 0.502905 9.567171 1.137524
1311875135.526235 0.502905 9.567171 1.137524
1311875135.529375 0.407114 9.471380 1.089628
1311875135.530344 0.407114 9.471380 1.089628
1311875135.533595 0.407114 9.471380 1.137524
1311875135.534635 0.407114 9.471380 1.137524
1311875135.538218 0.407114 9.471380 1.137524
1311875135.539333 0.407114 9.471380 1.137524
1311875135.540376 0.407114 9.471380 1.137524
1311875135.543651 0.371192 9.471380 1.329106
1311875135.544624 0.371192 9.471380 1.329106
1311875135.548225 0.455009 9.375588 1.137524
1311875135.549236 0.455009 9.375588 1.137524
1311875135.550478 0.455009 9.375588 1.137524
1311875135.551480 0.455009 9.375588 1.137524
1311875135.554609 0.419088 9.375588 1.137524
1311875135.555600 0.419088 9.375588 1.137524
1311875135.559268 0.502905 9.375588 1.041732
1311875135.560356 0.502905 9.375588 1.041732
1311875135.563483 0.419088 9.375588 1.137524
1311875135.564474 0.419088 9.375588 1.137524
1311875135.565717 0.419088 9.375588 1.137524
1311875135.566725 0.419088 9.375588 1.137524
1311875135.570386 0.407114 9.471380 1.041732
1311875135.571361 0.407114 9.471380 1.041732
1311875135.574609 0.455009 9.471380 1.137524
1311875135.575601 0.455009 9.471380 1.137524
1311875135.579244 0.502905 9.471380 1.185419
1311875135.580245 0.502905 9.471380 1.185419
1311875135.583489 0.598697 9.471380 1.137524
1311875135.584477 0.598697 9.471380 1.137524
1311875135.585712 0.598697 9.471380 1.137524
1311875135.586715 0.598697 9.471380 1.137524
1311875135.590374 0.455009 9.567171 1.185419
1311875135.591341 0.455009 9.567171 1.185419
1311875135.594609 0.706462 9.567171 1.472794
1311875135.595598 0.706462 9.567171 1.472794
1311875135.599251 0.778306 9.471380 1.329106
1311875135.600236 0.778306 9.471380 1.329106
1311875135.601358 0.778306 9.471380 1.329106
1311875135.604669 0.754358 9.471380 1.329106
1311875135.605600 0.754358 9.471380 1.329106
1311875135.609233 0.598697 9.567171 1.472794
1311875135.610340 0.598697 9.567171 1.472794
1311875135.611331 0.598697 9.567171 1.472794
1311875135.614630 0.754358 9.471380 1.424898
1311875135.615616 0.754358 9.471380 1.424898
1311875135.619120 0.598697 9.375588 1.233315
1311875135.620225 0.598697 9.375588 1.233315
1311875135.623474 0.598697 9.279797 1.424898
1311875135.624476 0.598697 9.279797 1.424898
1311875135.625735 0.598697 9.279797 1.424898
1311875135.626735 0.598697 9.279797 1.424898
1311875135.630351 0.598697 9.279797 1.424898
1311875135.631331 0.598697 9.279797 1.424898
1311875135.634628 0.598697 9.279797 1.472794
1311875135.635617 0.598697 9.279797 1.472794
1311875135.639119 0.598697 9.279797 1.329106
1311875135.640227 0.598697 9.279797 1.329106
1311875135.643475 0.706462 9.279797 1.329106
1311875135.644471 0.706462 9.279797 1.329106
1311875135.645707 0.706462 9.279797 1.329106
1311875135.646753 0.706462 9.279797 1.329106
1311875135.650376 0.598697 9.136110 1.233315
1311875135.651348 0.598697 9.136110 1.233315
1311875135.654613 0.598697 9.184006 1.041732
1311875135.655598 0.598697 9.184006 1.041732
1311875135.659265 0.598697 9.279797 1.041732
1311875135.660241 0.598697 9.279797 1.041732
1311875135.663484 0.598697 9.279797 1.137524
1311875135.664478 0.598697 9.279797 1.137524
1311875135.665727 0.598697 9.279797 1.137524
1311875135.666727 0.598697 9.279797 1.137524
1311875135.670373 0.598697 9.471380 1.041732
1311875135.671358 0.598697 9.471380 1.041732
1311875135.674608 0.598697 9.471380 0.945941
1311875135.675596 0.598697 9.471380 0.945941
1311875135.678709 0.598697 9.471380 0.945941
1311875135.679870 0.598697 9.471380 0.945941
1311875135.683354 0.706462 9.471380 0.754358
1311875135.684487 0.706462 9.471380 0.754358
1311875135.685603 0.706462 9.471380 0.754358
1311875135.686850 0.706462 9.471380 0.754358
1311875135.690294 0.598697 9.375588 0.658566
1311875135.691230 0.598697 9.375588 0.658566
1311875135.694489 0.598697 9.279797 0.706462
1311875135.695478 0.598697 9.279797 0.706462
1311875135.698617 0.455009 9.279797 0.562775
1311875135.699605 0.455009 9.279797 0.562775
1311875135.703116 0.407114 9.112162 0.562775
1311875135.704254 0.407114 9.112162 0.562775
1311875135.705484 0.407114 9.112162 0.562775
1311875135.706464 0.407114 9.112162 0.562775
1311875135.709727 0.502905 8.992423 0.466983
1311875135.710723 0.502905 8.992423 0.466983
1311875135.714271 0.598697 8.896631 0.395140
1311875135.715379 0.598697 8.896631 0.395140
1311875135.718602 0.598697 8.800840 0.466983
1311875135.719688 0.598697 8.800840 0.466983
1311875135.721080 0.598697 8.800840 0.466983
1311875135.722248 0.598697 8.800840 0.466983
1311875135.725479 0.598697 8.992423 0.371192
1311875135.726466 0.598697 8.992423 0.371192
1311875135.729733 0.598697 8.896631 0.658566
1311875135.730716 0.598697 8.896631 0.658566
1311875135.734357 0.598697 8.728996 0.562775
1311875135.735371 0.598697 8.728996 0.562775
1311875135.738628 0.598697 8.896631 0.419088
1311875135.739623 0.598697 8.896631 0.419088
1311875135.743227 0.754358 8.992423 0.371192
1311875135.744222 0.754358 8.992423 0.371192
1311875135.745213 0.754358 8.992423 0.371192
1311875135.748609 0.754358 8.896631 0.562775
1311875135.749602 0.754358 8.896631 0.562775
1311875135.753227 0.598697 9.076240 0.371192
1311875135.754223 0.598697 9.076240 0.371192
1311875135.755476 0.598697 9.076240 0.371192
1311875135.756602 0.598697 9.076240 0.371192
1311875135.759616 0.598697 9.112162 0.466983
1311875135.760770 0.598697 9.112162 0.466983
1311875135.764237 0.598697 9.184006 0.562775
1311875135.765277 0.598697 9.184006 0.562775
1311875135.768503 0.598697 9.423484 0.658566
1311875135.769451 0.598697 9.423484 0.658566
1311875135.770778 0.598697 9.423484 0.658566
1311875135.771744 0.598697 9.423484 0.658566
1311875135.775414 0.502905 9.471380 0.730410
1311875135.776344 0.502905 9.471380 0.730410
1311875135.779598 0.598697 9.567171 0.562775
1311875135.780623 0.598697 9.567171 0.562775
1311875135.783989 0.455009 9.758754 0.562775
1311875135.785208 0.455009 9.758754 0.562775
1311875135.788515 0.431062 9.854546 0.658566
1311875135.789496 0.431062 9.854546 0.658566
1311875135.790753 0.431062 9.854546 0.658566
1311875135.791706 0.431062 9.854546 0.658566
1311875135.795374 0.706462 9.854546 0.275400
1311875135.796367 0.706462 9.854546 0.275400
1311875135.799622 0.598697 9.854546 0.371192
1311875135.800621 0.598697 9.854546 0.371192
1311875135.803745 0.706462 9.854546 0.371192
1311875135.805206 0.706462 9.854546 0.371192
1311875135.808339 0.598697 9.854546 0.035922
1311875135.809340 0.598697 9.854546 0.035922
1311875135.810599 0.598697 9.854546 0.035922
1311875135.811728 0.598697 9.854546 0.035922
1311875135.815258 0.754358 9.662963 -0.011974
1311875135.816244 0.754358 9.662963 -0.011974
1311875135.817222 0.754358 9.662963 -0.011974
1311875135.820618 0.598697 9.758754 0.083818
1311875135.821607 0.598697 9.758754 0.083818
1311875135.824731 0.502905 9.758754 0.275400
1311875135.825724 0.502905 9.758754 0.275400
1311875135.829246 0.455009 9.662963 0.083818
1311875135.830383 0.455009 9.662963 0.083818
1311875135.833500 0.502905 9.519276 -0.011974
1311875135.834491 0.502905 9.519276 -0.011974
1311875135.835737 0.502905 9.519276 -0.011974
1311875135.836741 0.502905 9.519276 -0.011974
1311875135.840366 0.407114 9.662963 0.323296
1311875135.841344 0.407114 9.662963 0.323296
1311875135.844615 0.407114 9.567171 0.359218
1311875135.845621 0.407114 9.567171 0.359218
1311875135.848891 0.407114 9.567171 0.371192
1311875135.849924 0.407114 9.567171 0.371192
1311875135.853342 0.502905 9.495328 0.347244
1311875135.854394 0.502905 9.495328 0.347244
1311875135.855636 0.502905 9.495328 0.347244
1311875135.856759 0.502905 9.495328 0.347244
1311875135.859591 0.455009 9.662963 0.083818
1311875135.860748 0.455009 9.662963 0.083818
1311875135.864366 0.407114 9.758754 0.371192
1311875135.865363 0.407114 9.758754 0.371192
1311875135.868482 0.502905 9.854546 0.371192
1311875135.869495 0.502905 9.854546 0.371192
1311875135.870804 0.502905 9.854546 0.371192
1311875135.871733 0.502905 9.854546 0.371192
1311875135.875334 0.502905 9.854546 0.466983
1311875135.876348 0.502905 9.854546 0.466983
1311875135.879631 0.706462 9.854546 0.275400
1311875135.880614 0.706462 9.854546 0.275400
1311875135.883870 0.802253 9.830598 0.371192
1311875135.885233 0.802253 9.830598 0.371192
1311875135.888537 0.706462 9.662963 0.466983
1311875135.889471 0.706462 9.662963 0.466983
1311875135.890747 0.706462 9.662963 0.466983
1311875135.891704 0.706462 9.662963 0.466983
1311875135.895233 0.598697 9.758754 0.562775
1311875135.896324 0.598697 9.758754 0.562775
1311875135.899619 0.598697 9.662963 0.323296
1311875135.900605 0.598697 9.662963 0.323296
1311875135.904207 0.502905 9.519276 0.083818
1311875135.905215 0.502905 9.519276 0.083818
1311875135.908549 0.419088 9.567171 0.179609
1311875135.909544 0.419088 9.567171 0.179609
1311875135.910714 0.419088 9.567171 0.179609
1311875135.911718 0.419088 9.567171 0.179609
1311875135.915261 0.407114 9.567171 0.035922
1311875135.916352 0.407114 9.567171 0.035922
1311875135.919535 0.407114 9.662963 -0.107765
1311875135.922749 0.407114 9.662963 -0.107765
1311875135.923611 0.323296 9.662963 -0.011974
1311875135.924589 0.323296 9.662963 -0.011974
1311875135.928234 0.227505 9.758754 0.179609
1311875135.929371 0.227505 9.758754 0.179609
1311875135.930461 0.227505 9.758754 0.179609
1311875135.933491 0.023948 9.854546 -0.011974
1311875135.934468 0.023948 9.854546 -0.011974
1311875135.935736 0.023948 9.854546 -0.011974
1311875135.937435 0.023948 9.854546 -0.011974
1311875135.940385 0.227505 9.854546 0.179609
1311875135.941498 0.227505 9.854546 0.179609
1311875135.944610 0.119739 9.902441 0.179609
1311875135.945736 0.119739 9.902441 0.179609
1311875135.949236 0.227505 9.950337 0.371192
1311875135.950833 0.227505 9.950337 0.371192
1311875135.953499 0.119739 9.950337 0.347244
1311875135.954480 0.119739 9.950337 0.347244
1311875135.955727 0.119739 9.950337 0.347244
1311875135.956729 0.119739 9.950337 0.347244
1311875135.961106 0.227505 9.878494 0.371192
1311875135.963469 0.227505 9.878494 0.466983
1311875135.964513 0.227505 9.878494 0.466983
1311875135.965777 0.227505 9.878494 0.466983
1311875135.966733 0.227505 9.878494 0.466983
1311875135.970220 0.407114 9.878494 0.371192
1311875135.971376 0.407114 9.878494 0.371192
1311875135.974511 0.407114 9.854546 0.371192
1311875135.975457 0.407114 9.854546 0.371192
1311875135.978713 0.407114 9.758754 0.562775
1311875135.979734 0.407114 9.758754 0.562775
1311875135.980778 0.407114 9.758754 0.562775
1311875135.984350 0.407114 9.471380 0.371192
1311875135.985358 0.407114 9.471380 0.371192
1311875135.988600 0.407114 9.495328 0.419088
1311875135.989592 0.407114 9.495328 0.419088
1311875135.993238 0.371192 9.471380 0.371192
1311875135.994241 0.371192 9.471380 0.371192
1311875135.995500 0.371192 9.471380 0.371192
1311875135.996514 0.371192 9.471380 0.371192
1311875135.999596 0.407114 9.567171 0.371192
1311875136.000725 0.407114 9.567171 0.371192
1311875136.004235 0.227505 9.471380 0.419088
1311875136.005270 0.227505 9.471380 0.419088
1311875136.008502 0.407114 9.471380 0.371192
1311875136.009629 0.407114 9.471380 0.371192
1311875136.010756 0.407114 9.471380 0.371192
1311875136.011775 0.407114 9.471380 0.371192
1311875136.015368 0.407114 9.519276 0.371192
1311875136.016330 0.407114 9.519276 0.371192
1311875136.019604 0.407114 9.471380 0.562775
1311875136.020616 0.407114 9.471380 0.562775
1311875136.023905 0.455009 9.567171 0.562775
1311875136.025361 0.455009 9.567171 0.562775
1311875136.028512 0.502905 9.459406 0.466983
1311875136.029484 0.502905 9.459406 0.466983
1311875136.030718 0.502905 9.459406 0.466983
1311875136.031714 0.502905 9.459406 0.466983
1311875136.035213 0.598697 9.447432 0.754358
1311875136.036333 0.598697 9.447432 0.754358
1311875136.039588 0.598697 9.375588 0.419088
1311875136.040709 0.598697 9.375588 0.419088
1311875136.044248 0.598697 9.375588 0.562775
1311875136.045234 0.598697 9.375588 0.562775
1311875136.048539 0.598697 9.375588 0.562775
1311875136.049518 0.598697 9.375588 0.562775
1311875136.050712 0.598697 9.375588 0.562775
1311875136.051699 0.598697 9.375588 0.562775
1311875136.055364 0.778306 9.375588 0.419088
1311875136.056345 0.778306 9.375588 0.419088
1311875136.059601 0.802253 9.471380 0.371192
1311875136.060658 0.802253 9.471380 0.371192
1311875136.064215 0.790279 9.423484 0.179609
1311875136.065233 0.790279 9.423484 0.179609
1311875136.068377 0.598697 9.471380 -0.011974
1311875136.069460 0.598697 9.471380 -0.011974
1311875136.070604 0.598697 9.471380 -0.011974
1311875136.071709 0.598697 9.471380 -0.011974
1311875136.075218 0.431062 9.567171 0.011974
1311875136.076227 0.431062 9.567171 0.011974
1311875136.079360 0.407114 9.662963 -0.011974
1311875136.080475 0.407114 9.662963 -0.011974
1311875136.083639 0.431062 9.662963 -0.299348
1311875136.084597 0.431062 9.662963 -0.299348
1311875136.089563 0.407114 9.662963 -0.107765
1311875136.090633 0.407114 9.662963 -0.107765
1311875136.091606 0.407114 9.662963 -0.107765
1311875136.094639 0.407114 9.483354 -0.011974
1311875136.095623 0.407114 9.483354 -0.011974
1311875136.098832 0.371192 9.495328 0.011974
1311875136.100242 0.371192 9.495328 0.011974
1311875136.103356 0.407114 9.495328 -0.011974
1311875136.104487 0.407114 9.495328 -0.011974
1311875136.105631 0.407114 9.495328 -0.011974
1311875136.106623 0.407114 9.495328 -0.011974
1311875136.109724 0.598697 9.471380 0.275400
1311875136.110728 0.598697 9.471380 0.275400
1311875136.114236 0.598697 9.471380 -0.011974
1311875136.115239 0.598697 9.471380 -0.011974
1311875136.118454 0.706462 9.471380 0.179609
1311875136.119507 0.706462 9.471380 0.179609
1311875136.120723 0.706462 9.471380 0.179609
1311875136.121749 0.706462 9.471380 0.179609
1311875136.125347 0.790279 9.471380 0.179609
1311875136.126436 0.790279 9.471380 0.179609
1311875136.129589 0.802253 9.519276 0.323296
1311875136.130631 0.802253 9.519276 0.323296
1311875136.133573 0.598697 9.662963 0.179609
1311875136.134720 0.598697 9.662963 0.179609
1311875136.138262 0.598697 9.662963 0.179609
1311875136.139209 0.598697 9.662963 0.179609
1311875136.140238 0.598697 9.662963 0.179609
1311875136.143612 0.778306 9.662963 0.083818
1311875136.144605 0.778306 9.662963 0.083818
1311875136.147705 0.502905 9.758754 0.179609
1311875136.149270 0.502905 9.758754 0.179609
1311875136.150511 0.502905 9.758754 0.179609
1311875136.151487 0.502905 9.758754 0.179609
1311875136.154603 0.431062 9.758754 0.083818
1311875136.155624 0.431062 9.758754 0.083818
1311875136.159470 0.407114 9.758754 -0.011974
1311875136.160338 0.407114 9.758754 -0.011974
1311875136.161490 0.407114 9.758754 -0.011974
1311875136.164583 0.407114 9.854546 -0.011974
1311875136.165621 0.407114 9.854546 -0.011974
1311875136.169213 0.395140 9.854546 -0.011974
1311875136.170359 0.395140 9.854546 -0.011974
1311875136.171357 0.395140 9.854546 -0.011974
1311875136.174458 0.407114 9.854546 -0.011974
1311875136.175450 0.407114 9.854546 -0.011974
1311875136.178589 0.431062 9.854546 -0.203557
1311875136.179605 0.431062 9.854546 -0.203557
1311875136.182593 0.431062 9.854546 0.000000
1311875136.183598 0.431062 9.854546 0.000000
1311875136.185404 0.431062 9.854546 0.000000
1311875136.186458 0.431062 9.854546 0.000000
1311875136.189473 0.598697 9.854546 -0.059870
1311875136.190502 0.598697 9.854546 -0.059870
1311875136.193684 0.598697 9.854546 -0.011974
1311875136.194627 0.598697 9.854546 -0.011974
1311875136.195749 0.598697 9.854546 -0.011974
1311875136.197241 0.598697 9.854546 -0.011974
1311875136.200364 0.706462 9.758754 -0.203557
1311875136.201488 0.706462 9.758754 -0.203557
1311875136.204640 0.802253 9.662963 -0.203557
1311875136.205733 0.802253 9.662963 -0.203557
1311875136.209220 0.706462 9.471380 -0.203557
1311875136.210195 0.706462 9.471380 -0.203557
1311875136.213635 0.754358 9.423484 -0.395140
1311875136.214616 0.754358 9.423484 -0.395140
1311875136.215748 0.754358 9.423484 -0.395140
1311875136.217214 0.754358 9.423484 -0.395140
1311875136.220459 0.598697 9.279797 -0.203557
1311875136.221484 0.598697 9.279797 -0.203557
1311875136.224596 0.802253 9.088214 -0.203557
1311875136.225790 0.802253 9.088214 -0.203557
1311875136.229208 0.754358 9.088214 0.035922
1311875136.230224 0.754358 9.088214 0.035922
1311875136.233323 0.802253 8.992423 -0.011974
1311875136.234470 0.802253 8.992423 -0.011974
1311875136.235631 0.802253 8.992423 -0.011974
1311875136.236745 0.802253 8.992423 -0.011974
1311875136.240239 0.814227 8.896631 -0.011974
1311875136.241233 0.814227 8.896631 -0.011974
1311875136.244480 0.802253 8.896631 0.011974
1311875136.245450 0.802253 8.896631 0.011974
1311875136.248608 0.838175 8.752944 0.083818
1311875136.249632 0.838175 8.752944 0.083818
1311875136.251098 0.838175 8.752944 0.083818
1311875136.252204 0.838175 8.752944 0.083818
1311875136.255489 0.838175 8.705048 0.083818
1311875136.256490 0.838175 8.705048 0.083818
1311875136.259638 0.993836 8.800840 0.179609
1311875136.260725 0.993836 8.800840 0.179609
1311875136.264222 0.814227 8.896631 0.275400
1311875136.265204 0.814227 8.896631 0.275400
1311875136.268453 0.886071 8.705048 0.275400
1311875136.269474 0.886071 8.705048 0.275400
1311875136.270725 0.886071 8.705048 0.275400
1311875136.271691 0.886071 8.705048 0.275400
1311875136.275370 0.814227 8.800840 0.179609
1311875136.276357 0.814227 8.800840 0.179609
1311875136.279604 0.802253 8.728996 0.275400
1311875136.280583 0.802253 8.728996 0.275400
1311875136.283867 0.814227 8.896631 0.371192
1311875136.285226 0.814227 8.896631 0.371192
1311875136.288460 0.802253 8.992423 0.275400
1311875136.289497 0.802253 8.992423 0.275400
1311875136.290719 0.802253 8.992423 0.275400
1311875136.291774 0.802253 8.992423 0.275400
1311875136.295336 0.706462 8.992423 0.562775
1311875136.296446 0.706462 8.992423 0.562775
1311875136.299577 0.790279 8.992423 0.562775
1311875136.300604 0.790279 8.992423 0.562775
1311875136.304232 0.790279 8.992423 0.562775
1311875136.305326 0.790279 8.992423 0.562775
1311875136.306322 0.790279 8.992423 0.562775
1311875136.309586 0.754358 9.088214 0.562775
1311875136.310598 0.754358 9.088214 0.562775
1311875136.314217 0.598697 9.088214 0.562775
1311875136.315224 0.598697 9.088214 0.562775
1311875136.318465 0.598697 9.136110 0.562775
1311875136.319443 0.598697 9.136110 0.562775
1311875136.320691 0.598697 9.136110 0.562775
1311875136.321708 0.598697 9.136110 0.562775
1311875136.325376 0.598697 9.279797 0.383166
1311875136.326341 0.598697 9.279797 0.383166
1311875136.329587 0.598697 9.279797 0.371192
1311875136.330587 0.598697 9.279797 0.371192
1311875136.334201 0.598697 9.471380 0.395140
1311875136.335335 0.598697 9.471380 0.395140
1311875136.336380 0.598697 9.471380 0.395140
1311875136.339599 0.598697 9.471380 0.562775
1311875136.340693 0.598697 9.471380 0.562775
1311875136.343863 0.598697 9.471380 0.562775
1311875136.345223 0.598697 9.471380 0.562775
1311875136.348482 0.502905 9.471380 0.754358
1311875136.349484 0.502905 9.471380 0.754358
1311875136.350791 0.502905 9.471380 0.754358
1311875136.351753 0.502905 9.471380 0.754358
1311875136.355333 0.598697 9.423484 0.706462
1311875136.356337 0.598697 9.423484 0.706462
1311875136.359598 0.502905 9.471380 0.850149
1311875136.360588 0.502905 9.471380 0.850149
1311875136.364238 0.598697 9.375588 0.754358
1311875136.365354 0.598697 9.375588 0.754358
1311875136.366343 0.598697 9.375588 0.754358
1311875136.369589 0.598697 9.471380 0.754358
1311875136.370610 0.598697 9.471380 0.754358
1311875136.373610 0.502905 9.567171 0.754358
1311875136.374575 0.502905 9.567171 0.754358
1311875136.376196 0.502905 9.567171 0.754358
1311875136.379332 0.502905 9.471380 0.562775
1311875136.380378 0.502905 9.471380 0.562775
1311875136.383594 0.431062 9.471380 0.658566
1311875136.384582 0.431062 9.471380 0.658566
1311875136.388258 0.419088 9.471380 0.754358
1311875136.389490 0.419088 9.471380 0.754358
1311875136.390531 0.419088 9.471380 0.754358
1311875136.391460 0.419088 9.471380 0.754358
1311875136.394624 0.431062 9.471380 0.754358
1311875136.395617 0.431062 9.471380 0.754358
1311875136.399203 0.502905 9.471380 0.754358
1311875136.400198 0.502905 9.471380 0.754358
1311875136.403351 0.706462 9.471380 0.754358
1311875136.404478 0.706462 9.471380 0.754358
1311875136.405752 0.706462 9.471380 0.754358
1311875136.406733 0.706462 9.471380 0.754358
1311875136.410335 0.598697 9.471380 0.706462
1311875136.411372 0.598697 9.471380 0.706462
1311875136.414472 0.598697 9.471380 0.706462
1311875136.415589 0.598697 9.471380 0.706462
1311875136.419099 0.754358 9.471380 0.466983
1311875136.420191 0.754358 9.471380 0.466983
1311875136.423461 0.598697 9.471380 0.658566
1311875136.424501 0.598697 9.471380 0.658566
1311875136.425736 0.598697 9.471380 0.658566
1311875136.426965 0.598697 9.471380 0.658566
1311875136.430344 0.706462 9.567171 0.562775
1311875136.431362 0.706462 9.567171 0.562775
1311875136.434589 0.754358 9.471380 0.359218
1311875136.435606 0.754358 9.471380 0.359218
1311875136.439199 0.598697 9.471380 0.383166
1311875136.440257 0.598697 9.471380 0.383166
1311875136.441229 0.598697 9.471380 0.383166
1311875136.444578 0.598697 9.471380 0.275400
1311875136.445611 0.598697 9.471380 0.275400
1311875136.449225 0.502905 9.447432 0.371192
1311875136.450201 0.502905 9.447432 0.371192
1311875136.453482 0.754358 9.375588 0.011974
1311875136.454447 0.754358 9.375588 0.011974
1311875136.455745 0.754358 9.375588 0.011974
1311875136.456769 0.754358 9.375588 0.011974
1311875136.460415 0.598697 9.279797 0.275400
1311875136.461367 0.598697 9.279797 0.275400
1311875136.464601 0.802253 9.279797 0.371192
1311875136.465585 0.802253 9.279797 0.371192
1311875136.469198 0.706462 9.375588 0.466983
1311875136.470226 0.706462 9.375588 0.466983
1311875136.473456 0.598697 9.375588 0.371192
1311875136.474472 0.598697 9.375588 0.371192
1311875136.475690 0.598697 9.375588 0.371192
1311875136.476691 0.598697 9.375588 0.371192
1311875136.480398 0.706462 9.423484 0.323296
1311875136.481351 0.706462 9.423484 0.323296
1311875136.484630 0.706462 9.471380 0.275400
1311875136.485608 0.706462 9.471380 0.275400
1311875136.489394 0.790279 9.471380 0.179609
1311875136.490391 0.790279 9.471380 0.179609
1311875136.491347 0.790279 9.471380 0.179609
1311875136.494600 0.706462 9.662963 0.371192
1311875136.496899 0.706462 9.662963 0.371192
1311875136.499202 0.778306 9.567171 0.179609
1311875136.500343 0.778306 9.567171 0.179609
1311875136.501326 0.778306 9.567171 0.179609
1311875136.504603 0.802253 9.662963 0.179609
1311875136.505567 0.802253 9.662963 0.179609
1311875136.509210 0.802253 9.662963 0.466983
1311875136.510321 0.802253 9.662963 0.466983
1311875136.511341 0.802253 9.662963 0.466983
1311875136.514616 0.706462 9.758754 0.371192
1311875136.515579 0.706462 9.758754 0.371192
1311875136.518740 0.502905 9.662963 0.359218
1311875136.519691 0.502905 9.662963 0.359218
1311875136.523345 0.407114 9.567171 0.371192
1311875136.524380 0.407114 9.567171 0.371192
1311875136.525708 0.407114 9.567171 0.371192
1311875136.526597 0.407114 9.567171 0.371192
1311875136.529593 0.598697 9.567171 0.347244
1311875136.530747 0.598697 9.567171 0.347244
1311875136.534242 0.407114 9.662963 0.179609
1311875136.535211 0.407114 9.662963 0.179609
1311875136.538481 0.407114 9.662963 0.275400
1311875136.539480 0.407114 9.662963 0.275400
1311875136.540719 0.407114 9.662963 0.275400
1311875136.541731 0.407114 9.662963 0.275400
1311875136.545372 0.419088 9.758754 0.371192
1311875136.546392 0.419088 9.758754 0.371192
1311875136.549614 0.502905 9.662963 0.562775
1311875136.550588 0.502905 9.662963 0.562775
1311875136.554233 0.598697 9.758754 0.419088
1311875136.555221 0.598697 9.758754 0.419088
1311875136.558515 0.706462 9.806650 0.562775
1311875136.559463 0.706462 9.806650 0.562775
1311875136.560712 0.706462 9.806650 0.562775
1311875136.561690 0.706462 9.806650 0.562775
1311875136.565320 0.502905 9.830598 0.658566
1311875136.566309 0.502905 9.830598 0.658566
1311875136.569640 0.598697 9.758754 0.562775
1311875136.570607 0.598697 9.758754 0.562775
1311875136.573605 0.790279 9.758754 0.754358
1311875136.574566 0.790279 9.758754 0.754358
1311875136.578206 0.598697 9.662963 0.754358
1311875136.579190 0.598697 9.662963 0.754358
1311875136.580219 0.598697 9.662963 0.754358
1311875136.583616 0.706462 9.758754 0.850149
1311875136.584580 0.706462 9.758754 0.850149
1311875136.587866 0.502905 9.662963 0.945941
1311875136.589202 0.502905 9.662963 0.945941
1311875136.590484 0.502905 9.662963 0.945941
1311875136.591485 0.502905 9.662963 0.945941
1311875136.594603 0.407114 9.854546 0.945941
1311875136.595585 0.407114 9.854546 0.945941
1311875136.599211 0.431062 9.830598 0.850149
1311875136.600239 0.431062 9.830598 0.850149
1311875136.603495 0.598697 9.854546 0.754358
1311875136.604475 0.598697 9.854546 0.754358
1311875136.605730 0.598697 9.854546 0.754358
1311875136.606728 0.598697 9.854546 0.754358
1311875136.610351 0.598697 9.854546 0.754358
1311875136.611351 0.598697 9.854546 0.754358
1311875136.614618 0.407114 9.854546 0.945941
1311875136.615606 0.407114 9.854546 0.945941
1311875136.619218 0.502905 9.854546 0.754358
1311875136.620221 0.502905 9.854546 0.754358
1311875136.623456 0.598697 9.806650 0.754358
1311875136.624477 0.598697 9.806650 0.754358
1311875136.625731 0.598697 9.806650 0.754358
1311875136.626743 0.598697 9.806650 0.754358
1311875136.630410 0.598697 9.842572 0.802253
1311875136.631383 0.598697 9.842572 0.802253
1311875136.634584 0.802253 9.854546 0.754358
1311875136.635599 0.802253 9.854546 0.754358
1311875136.638827 0.802253 9.950337 0.562775
1311875136.639828 0.802253 9.950337 0.562775
1311875136.643484 0.706462 10.046129 0.395140
1311875136.644473 0.706462 10.046129 0.395140
1311875136.645727 0.706462 10.046129 0.395140
1311875136.646724 0.706462 10.046129 0.395140
1311875136.650251 0.598697 10.046129 0.371192
1311875136.651220 0.598697 10.046129 0.371192
1311875136.654468 0.598697 10.046129 0.323296
1311875136.655456 0.598697 10.046129 0.323296
1311875136.658672 0.598697 10.189816 0.275400
1311875136.659584 0.598697 10.189816 0.275400
1311875136.662760 0.598697 10.046129 0.179609
1311875136.663865 0.598697 10.046129 0.179609
1311875136.665340 0.598697 10.046129 0.179609
1311875136.666487 0.598697 10.046129 0.179609
1311875136.669577 0.598697 10.046129 0.179609
1311875136.670727 0.598697 10.046129 0.179609
1311875136.674226 0.802253 9.950337 0.179609
1311875136.675223 0.802253 9.950337 0.179609
1311875136.678479 0.706462 9.854546 0.347244
1311875136.679482 0.706462 9.854546 0.347244
1311875136.680720 0.706462 9.854546 0.347244
1311875136.681742 0.706462 9.854546 0.347244
1311875136.685335 0.706462 9.854546 0.323296
1311875136.686325 0.706462 9.854546 0.323296
1311875136.689456 0.790279 9.758754 0.371192
1311875136.690634 0.790279 9.758754 0.371192
1311875136.693595 0.598697 9.854546 0.395140
1311875136.694584 0.598697 9.854546 0.395140
1311875136.698200 0.407114 9.830598 0.371192
1311875136.699186 0.407114 9.830598 0.371192
1311875136.700318 0.407114 9.830598 0.371192
1311875136.703480 0.502905 9.567171 0.371192
1311875136.704728 0.502905 9.567171 0.371192
1311875136.706083 0.502905 9.567171 0.371192
1311875136.709361 0.407114 9.471380 0.371192
1311875136.710323 0.407114 9.471380 0.371192
1311875136.713607 0.502905 9.471380 0.658566
1311875136.714626 0.502905 9.471380 0.658566
1311875136.718218 0.598697 9.567171 0.754358
1311875136.719319 0.598697 9.567171 0.754358
1311875136.720345 0.598697 9.567171 0.754358
1311875136.723603 0.431062 9.519276 0.658566
1311875136.724598 0.431062 9.519276 0.658566
1311875136.728215 0.502905 9.471380 0.754358
1311875136.729326 0.502905 9.471380 0.754358
1311875136.730335 0.502905 9.471380 0.754358
1311875136.733624 0.407114 9.567171 0.850149
1311875136.734604 0.407114 9.567171 0.850149
1311875136.736204 0.407114 9.567171 0.850149
1311875136.739352 0.407114 9.662963 0.754358
1311875136.740324 0.407114 9.662963 0.754358
1311875136.743474 0.407114 9.758754 0.802253
1311875136.744598 0.407114 9.758754 0.802253
1311875136.746228 0.407114 9.758754 0.802253
1311875136.749360 0.371192 9.902441 0.706462
1311875136.750343 0.371192 9.902441 0.706462
1311875136.753587 0.323296 10.046129 0.562775
1311875136.754578 0.323296 10.046129 0.562775
1311875136.758211 0.227505 10.141920 0.371192
1311875136.759224 0.227505 10.141920 0.371192
1311875136.760492 0.227505 10.141920 0.371192
1311875136.761478 0.227505 10.141920 0.371192
1311875136.764717 0.119739 10.046129 0.658566
1311875136.765731 0.119739 10.046129 0.658566
1311875136.769319 0.227505 9.854546 0.562775
1311875136.770322 0.227505 9.854546 0.562775
1311875136.773476 0.227505 9.854546 0.371192
1311875136.774463 0.227505 9.854546 0.371192
1311875136.775710 0.227505 9.854546 0.371192
1311875136.776813 0.227505 9.854546 0.371192
1311875136.780357 0.227505 9.662963 0.419088
1311875136.781489 0.227505 9.662963 0.419088
1311875136.784591 0.323296 9.662963 0.371192
1311875136.785713 0.323296 9.662963 0.371192
1311875136.789218 0.323296 9.567171 0.562775
1311875136.790206 0.323296 9.567171 0.562775
1311875136.793476 0.227505 9.483354 0.562775
1311875136.794471 0.227505 9.483354 0.562775
1311875136.795715 0.227505 9.483354 0.562775
1311875136.796744 0.227505 9.483354 0.562775
1311875136.800346 0.371192 9.483354 0.275400
1311875136.801325 0.371192 9.483354 0.275400
1311875136.804597 0.407114 9.471380 0.371192
1311875136.805568 0.407114 9.471380 0.371192
1311875136.809203 0.407114 9.471380 0.179609
1311875136.810223 0.407114 9.471380 0.179609
1311875136.813498 0.407114 9.495328 0.275400
1311875136.814475 0.407114 9.495328 0.275400
1311875136.815724 0.407114 9.495328 0.275400
1311875136.816722 0.407114 9.495328 0.275400
1311875136.820357 0.323296 9.567171 0.179609
1311875136.821353 0.323296 9.567171 0.179609
1311875136.824469 0.407114 9.662963 -0.011974
1311875136.825579 0.407114 9.662963 -0.011974
1311875136.828638 0.407114 9.662963 0.179609
1311875136.829612 0.407114 9.662963 0.179609
1311875136.832856 0.407114 9.662963 -0.035922
1311875136.834194 0.407114 9.662963 -0.035922
1311875136.835368 0.407114 9.662963 -0.035922
1311875136.836474 0.407114 9.662963 -0.035922
1311875136.839607 0.407114 9.662963 -0.023948
1311875136.840785 0.407114 9.662963 -0.023948
1311875136.844218 0.227505 9.662963 -0.203557
1311875136.845339 0.227505 9.662963 -0.203557
1311875136.848447 0.071844 9.662963 -0.203557
1311875136.849443 0.071844 9.662963 -0.203557
1311875136.850701 0.071844 9.662963 -0.203557
1311875136.851712 0.071844 9.662963 -0.203557
1311875136.855229 0.227505 9.567171 -0.203557
1311875136.856322 0.227505 9.567171 -0.203557
1311875136.859634 0.323296 9.567171 -0.299348
1311875136.860591 0.323296 9.567171 -0.299348
1311875136.864239 0.227505 9.471380 -0.203557
1311875136.865350 0.227505 9.471380 -0.203557
1311875136.866329 0.227505 9.471380 -0.203557
1311875136.869569 0.227505 9.447432 -0.203557
1311875136.870569 0.227505 9.447432 -0.203557
1311875136.873566 0.227505 9.471380 -0.059870
1311875136.874610 0.227505 9.471380 -0.059870
1311875136.875859 0.227505 9.471380 -0.059870
1311875136.877201 0.227505 9.471380 -0.059870
1311875136.880499 0.119739 9.471380 -0.107765
1311875136.881459 0.119739 9.471380 -0.107765
1311875136.884598 0.227505 9.567171 -0.107765
1311875136.885700 0.227505 9.567171 -0.107765
1311875136.889220 0.323296 9.662963 -0.011974
1311875136.890203 0.323296 9.662963 -0.011974
1311875136.893379 0.227505 9.662963 0.035922
1311875136.894489 0.227505 9.662963 0.035922
1311875136.895605 0.227505 9.662963 0.035922
1311875136.896705 0.227505 9.662963 0.035922
1311875136.900213 0.227505 9.854546 0.035922
1311875136.901333 0.227505 9.854546 0.035922
1311875136.904470 0.227505 9.758754 0.083818
1311875136.905467 0.227505 9.758754 0.083818
1311875136.908565 0.071844 9.758754 0.179609
1311875136.909576 0.071844 9.758754 0.179609
1311875136.913273 0.023948 9.842572 0.179609
1311875136.914203 0.023948 9.842572 0.179609
1311875136.915188 0.023948 9.842572 0.179609
1311875136.918457 0.323296 9.662963 0.083818
1311875136.919582 0.323296 9.662963 0.083818
1311875136.921086 0.323296 9.662963 0.083818
1311875136.922214 0.323296 9.662963 0.083818
1311875136.925460 0.455009 9.519276 0.179609
1311875136.926452 0.455009 9.519276 0.179609
1311875136.929720 0.407114 9.471380 0.371192
1311875136.930722 0.407114 9.471380 0.371192
1311875136.934337 0.395140 9.423484 0.371192
1311875136.935316 0.395140 9.423484 0.371192
1311875136.938572 0.395140 9.184006 0.371192
1311875136.939601 0.395140 9.184006 0.371192
1311875136.942837 0.407114 8.992423 0.323296
1311875136.944197 0.407114 8.992423 0.323296
1311875136.945452 0.407114 8.992423 0.323296
1311875136.946451 0.407114 8.992423 0.323296
1311875136.949716 0.227505 8.896631 0.359218
1311875136.950721 0.227505 8.896631 0.359218
1311875136.954233 0.371192 8.896631 0.347244
1311875136.955334 0.371192 8.896631 0.347244
1311875136.958600 0.371192 8.896631 0.371192
1311875136.959607 0.371192 8.896631 0.371192
1311875136.963236 0.407114 8.896631 0.371192
1311875136.964306 0.407114 8.896631 0.371192
1311875136.965358 0.407114 8.896631 0.371192
1311875136.968601 0.323296 8.992423 0.371192
1311875136.969600 0.323296 8.992423 0.371192
1311875136.973220 0.407114 9.040318 0.275400
1311875136.974341 0.407114 9.040318 0.275400
1311875136.975333 0.407114 9.040318 0.275400
1311875136.978570 0.419088 9.088214 0.371192
1311875136.979576 0.419088 9.088214 0.371192
1311875136.983220 0.598697 9.040318 0.371192
1311875136.984321 0.598697 9.040318 0.371192
1311875136.985328 0.598697 9.040318 0.371192
1311875136.988608 0.455009 9.088214 0.275400
1311875136.989641 0.455009 9.088214 0.275400
1311875136.993232 0.598697 9.184006 0.179609
1311875136.994347 0.598697 9.184006 0.179609
1311875136.995324 0.598697 9.184006 0.179609
1311875136.998449 0.455009 9.088214 0.179609
1311875136.999578 0.455009 9.088214 0.179609
1311875137.001221 0.455009 9.088214 0.179609
1311875137.004348 0.598697 9.088214 0.179609
1311875137.005359 0.598697 9.088214 0.179609
1311875137.008598 0.502905 9.088214 -0.011974
1311875137.009676 0.502905 9.088214 -0.011974
1311875137.010703 0.502905 9.088214 -0.011974
1311875137.011826 0.502905 9.088214 -0.011974
1311875137.015350 0.502905 9.088214 -0.011974
1311875137.016318 0.502905 9.088214 -0.011974
1311875137.019483 0.407114 9.088214 -0.011974
1311875137.020573 0.407114 9.088214 -0.011974
1311875137.023466 0.407114 9.088214 -0.023948
1311875137.024618 0.407114 9.088214 -0.023948
1311875137.025895 0.407114 9.088214 -0.023948
1311875137.026911 0.407114 9.088214 -0.023948
1311875137.030349 0.407114 9.064266 -0.203557
1311875137.031448 0.407114 9.064266 -0.203557
1311875137.034607 0.407114 9.088214 -0.035922
1311875137.035570 0.407114 9.088214 -0.035922
1311875137.038807 0.407114 9.136110 -0.011974
1311875137.040186 0.407114 9.136110 -0.011974
1311875137.043320 0.407114 9.112162 -0.011974
1311875137.044442 0.407114 9.112162 -0.011974
1311875137.045693 0.407114 9.112162 -0.011974
1311875137.046705 0.407114 9.112162 -0.011974
1311875137.050218 0.431062 9.279797 -0.011974
1311875137.051210 0.431062 9.279797 -0.011974
1311875137.054455 0.407114 9.471380 0.083818
1311875137.055449 0.407114 9.471380 0.083818
1311875137.058477 0.407114 9.375588 -0.011974
1311875137.060705 0.407114 9.375588 -0.011974
1311875137.062938 0.407114 9.471380 0.083818
1311875137.064685 0.407114 9.471380 0.083818
1311875137.065573 0.407114 9.471380 0.083818
1311875137.066601 0.407114 9.471380 0.083818
1311875137.069697 0.598697 9.471380 0.371192
1311875137.070690 0.598697 9.471380 0.371192
1311875137.074345 0.502905 9.471380 0.359218
1311875137.075330 0.502905 9.471380 0.359218
