# accelerometer data
# file: 'rgbd_dataset_freiburg2_large_no_loop.bag'
# timestamp ax ay az
1311875813.155641 -2.179256 9.567171 0.754358
1311875813.156642 -2.179256 9.567171 0.754358
1311875813.157877 -2.179256 9.567171 0.754358
1311875813.158904 -2.179256 9.567171 0.754358
1311875813.162385 -2.179256 9.854546 0.706462
1311875813.163507 -2.179256 9.854546 0.706462
1311875813.166651 -2.071490 9.950337 0.766332
1311875813.167780 -2.071490 9.950337 0.766332
1311875813.170640 -2.071490 9.950337 0.754358
1311875813.171764 -2.071490 9.950337 0.754358
1311875813.173253 -2.071490 9.950337 0.754358
1311875813.174287 -2.071490 9.950337 0.754358
1311875813.177653 -2.071490 10.046129 0.754358
1311875813.178657 -2.071490 10.046129 0.754358
1311875813.181935 -2.227151 10.046129 0.562775
1311875813.182888 -2.227151 10.046129 0.562775
1311875813.186441 -2.071490 9.902441 0.371192
1311875813.187535 -2.071490 9.902441 0.371192
1311875813.190682 -2.071490 9.854546 0.275400
1311875813.191645 -2.071490 9.854546 0.275400
1311875813.192889 -2.071490 9.854546 0.275400
1311875813.193898 -2.071490 9.854546 0.275400
1311875813.197526 -2.071490 9.758754 0.179609
1311875813.198560 -2.071490 9.758754 0.179609
1311875813.201655 -2.071490 9.662963 -0.011974
1311875813.202765 -2.071490 9.662963 -0.011974
1311875813.205780 -1.975699 9.662963 -0.011974
1311875813.206774 -1.975699 9.662963 -0.011974
1311875813.208027 -1.975699 9.662963 -0.011974
1311875813.209117 -1.975699 9.662963 -0.011974
1311875813.212560 -1.903855 9.662963 0.035922
1311875813.213549 -1.903855 9.662963 0.035922
1311875813.216778 -1.903855 9.854546 0.179609
1311875813.217779 -1.903855 9.854546 0.179609
1311875813.221420 -1.891881 9.854546 0.179609
1311875813.222430 -1.891881 9.854546 0.179609
1311875813.223516 -1.891881 9.854546 0.179609
1311875813.226779 -1.891881 9.950337 0.562775
1311875813.227899 -1.891881 9.950337 0.562775
1311875813.231385 -1.843985 10.046129 0.466983
1311875813.232404 -1.843985 10.046129 0.466983
1311875813.235670 -1.796090 10.046129 0.371192
1311875813.236635 -1.796090 10.046129 0.371192
1311875813.237881 -1.796090 10.046129 0.371192
1311875813.238921 -1.796090 10.046129 0.371192
1311875813.242533 -1.843985 9.950337 0.466983
1311875813.243508 -1.843985 9.950337 0.466983
1311875813.246781 -1.796090 9.854546 0.323296
1311875813.247762 -1.796090 9.854546 0.323296
1311875813.250903 -1.796090 9.830598 0.323296
1311875813.252030 -1.796090 9.830598 0.323296
1311875813.255511 -1.700298 9.878494 0.371192
1311875813.256532 -1.700298 9.878494 0.371192
1311875813.257780 -1.700298 9.878494 0.371192
1311875813.258779 -1.700298 9.878494 0.371192
1311875813.261776 -1.592533 9.662963 0.179609
1311875813.262906 -1.592533 9.662963 0.179609
1311875813.266403 -1.508715 9.662963 0.179609
1311875813.267397 -1.508715 9.662963 0.179609
1311875813.270684 -1.508715 9.758754 0.179609
1311875813.271668 -1.508715 9.758754 0.179609
1311875813.272900 -1.508715 9.758754 0.179609
1311875813.273912 -1.508715 9.758754 0.179609
1311875813.277514 -1.460820 9.471380 0.359218
1311875813.278531 -1.460820 9.471380 0.359218
1311875813.281793 -1.508715 9.471380 0.466983
1311875813.282762 -1.508715 9.471380 0.466983
1311875813.286029 -1.412924 9.447432 0.562775
1311875813.287028 -1.412924 9.447432 0.562775
1311875813.290656 -1.305159 9.279797 0.706462
1311875813.291654 -1.305159 9.279797 0.706462
1311875813.292890 -1.305159 9.279797 0.706462
1311875813.293902 -1.305159 9.279797 0.706462
1311875813.297409 -1.305159 9.184006 0.562775
1311875813.298519 -1.305159 9.184006 0.562775
1311875813.301796 -1.305159 9.184006 0.742384
1311875813.302790 -1.305159 9.184006 0.742384
1311875813.306273 -1.305159 9.184006 0.850149
1311875813.307416 -1.305159 9.184006 0.850149
1311875813.310634 -1.305159 9.088214 0.754358
1311875813.311748 -1.305159 9.088214 0.754358
1311875813.312901 -1.305159 9.088214 0.754358
1311875813.313902 -1.305159 9.088214 0.754358
1311875813.317523 -1.209367 9.136110 0.850149
1311875813.318543 -1.209367 9.136110 0.850149
1311875813.321776 -1.209367 8.752944 1.137524
1311875813.322778 -1.209367 8.752944 1.137524
1311875813.326402 -1.137524 8.705048 0.945941
1311875813.327396 -1.137524 8.705048 0.945941
1311875813.330654 -1.125550 8.513465 0.802253
1311875813.331643 -1.125550 8.513465 0.802253
1311875813.333023 -1.125550 8.513465 0.802253
1311875813.333902 -1.125550 8.513465 0.802253
1311875813.337650 -1.113576 8.369778 0.371192
1311875813.338638 -1.113576 8.369778 0.371192
1311875813.341775 -1.209367 8.417674 0.383166
1311875813.342884 -1.209367 8.417674 0.383166
1311875813.346400 -1.209367 8.321882 0.466983
1311875813.347533 -1.209367 8.321882 0.466983
1311875813.350650 -1.209367 8.369778 0.562775
1311875813.351666 -1.209367 8.369778 0.562775
1311875813.352937 -1.209367 8.369778 0.562775
1311875813.353908 -1.209367 8.369778 0.562775
1311875813.357526 -1.113576 8.321882 0.754358
1311875813.358509 -1.113576 8.321882 0.754358
1311875813.361821 -1.113576 8.321882 0.945941
1311875813.362777 -1.113576 8.321882 0.945941
1311875813.366385 -1.113576 8.345830 0.945941
1311875813.367373 -1.113576 8.345830 0.945941
1311875813.370707 -1.113576 8.417674 1.041732
1311875813.371777 -1.113576 8.417674 1.041732
1311875813.372885 -1.113576 8.417674 1.041732
1311875813.373897 -1.113576 8.417674 1.041732
1311875813.377654 -1.113576 8.513465 1.137524
1311875813.378534 -1.113576 8.513465 1.137524
1311875813.381649 -1.125550 8.513465 1.137524
1311875813.382777 -1.125550 8.513465 1.137524
1311875813.386022 -1.161471 8.681100 1.233315
1311875813.387072 -1.161471 8.681100 1.233315
1311875813.390697 -1.113576 8.609257 1.041732
1311875813.391648 -1.113576 8.609257 1.041732
1311875813.392900 -1.113576 8.609257 1.041732
1311875813.394026 -1.113576 8.609257 1.041732
1311875813.397552 -1.209367 8.705048 0.658566
1311875813.398544 -1.209367 8.705048 0.658566
1311875813.401758 -1.305159 8.992423 0.371192
1311875813.402740 -1.305159 8.992423 0.371192
1311875813.406407 -1.305159 9.088214 0.179609
1311875813.407377 -1.305159 9.088214 0.179609
1311875813.410655 -1.305159 9.088214 0.179609
1311875813.411647 -1.305159 9.088214 0.179609
1311875813.413006 -1.305159 9.088214 0.179609
1311875813.413898 -1.305159 9.088214 0.179609
1311875813.417516 -1.161471 9.279797 -0.203557
1311875813.418530 -1.161471 9.279797 -0.203557
1311875813.421781 -1.113576 9.423484 -0.347244
1311875813.422773 -1.113576 9.423484 -0.347244
1311875813.426398 -1.029758 9.375588 -0.395140
1311875813.427644 -1.029758 9.375588 -0.395140
1311875813.428521 -1.029758 9.375588 -0.395140
1311875813.431763 -1.077654 9.471380 -0.778306
1311875813.432878 -1.077654 9.471380 -0.778306
1311875813.436379 -1.113576 9.519276 -0.778306
1311875813.437365 -1.113576 9.519276 -0.778306
1311875813.440794 -1.029758 9.471380 -1.161471
1311875813.441769 -1.029758 9.471380 -1.161471
1311875813.443047 -1.029758 9.471380 -1.161471
1311875813.444396 -1.029758 9.471380 -1.161471
1311875813.447638 -0.933967 9.567171 -1.353054
1311875813.448775 -0.933967 9.567171 -1.353054
1311875813.451901 -0.933967 9.662963 -1.544637
1311875813.452903 -0.933967 9.662963 -1.544637
1311875813.456510 -0.742384 9.854546 -1.544637
1311875813.457520 -0.742384 9.854546 -1.544637
1311875813.460769 -0.730410 9.854546 -1.736220
1311875813.461772 -0.730410 9.854546 -1.736220
1311875813.463049 -0.730410 9.854546 -1.736220
1311875813.464383 -0.730410 9.854546 -1.736220
1311875813.467632 -0.730410 9.878494 -2.215177
1311875813.468753 -0.730410 9.878494 -2.215177
1311875813.471915 -0.730410 10.046129 -2.119386
1311875813.472882 -0.730410 10.046129 -2.119386
1311875813.476526 -0.646592 10.046129 -2.263073
1311875813.477496 -0.646592 10.046129 -2.263073
1311875813.480773 -0.538827 10.237712 -2.310969
1311875813.481635 -0.538827 10.237712 -2.310969
1311875813.482870 -0.538827 10.237712 -2.310969
1311875813.484009 -0.538827 10.237712 -2.310969
1311875813.487693 -0.359218 10.189816 -2.119386
1311875813.488649 -0.359218 10.189816 -2.119386
1311875813.491896 -0.335270 10.046129 -2.023594
1311875813.492898 -0.335270 10.046129 -2.023594
1311875813.496415 0.023948 9.854546 -2.119386
1311875813.497508 0.023948 9.854546 -2.119386
1311875813.500631 0.023948 9.806650 -1.927803
1311875813.501751 0.023948 9.806650 -1.927803
1311875813.502880 0.023948 9.806650 -1.927803
1311875813.504382 0.023948 9.806650 -1.927803
1311875813.507648 0.023948 9.662963 -1.975699
1311875813.508655 0.023948 9.662963 -1.975699
1311875813.511897 0.023948 9.662963 -1.927803
1311875813.512885 0.023948 9.662963 -1.927803
1311875813.516510 0.071844 9.471380 -2.310969
1311875813.517509 0.071844 9.471380 -2.310969
1311875813.520777 0.119739 9.423484 -2.023594
1311875813.521769 0.119739 9.423484 -2.023594
1311875813.525382 0.023948 9.447432 -1.975699
1311875813.526394 0.023948 9.447432 -1.975699
1311875813.527645 0.023948 9.447432 -1.975699
1311875813.528772 0.023948 9.447432 -1.975699
1311875813.531877 0.023948 9.375588 -2.023594
1311875813.532862 0.023948 9.375588 -2.023594
1311875813.536374 -0.011974 9.279797 -1.939777
1311875813.537498 -0.011974 9.279797 -1.939777
1311875813.540648 0.011974 9.279797 -1.927803
1311875813.541647 0.011974 9.279797 -1.927803
1311875813.542922 0.011974 9.279797 -1.927803
1311875813.544073 0.011974 9.279797 -1.927803
1311875813.547634 -0.167635 9.423484 -1.736220
1311875813.548634 -0.167635 9.423484 -1.736220
1311875813.551882 -0.263426 9.567171 -1.544637
1311875813.552897 -0.263426 9.567171 -1.544637
1311875813.556521 -0.059870 9.567171 -1.640429
1311875813.557510 -0.059870 9.567171 -1.640429
1311875813.560648 -0.263426 9.758754 -1.544637
1311875813.561819 -0.263426 9.758754 -1.544637
1311875813.562880 -0.263426 9.758754 -1.544637
1311875813.563997 -0.263426 9.758754 -1.544637
1311875813.567501 -0.263426 9.806650 -1.640429
1311875813.568626 -0.263426 9.806650 -1.640429
1311875813.571759 -0.311322 9.854546 -1.544637
1311875813.572901 -0.311322 9.854546 -1.544637
1311875813.576433 -0.167635 9.854546 -1.736220
1311875813.577522 -0.167635 9.854546 -1.736220
1311875813.580646 -0.167635 9.854546 -1.736220
1311875813.581770 -0.167635 9.854546 -1.736220
1311875813.582931 -0.167635 9.854546 -1.736220
1311875813.584430 -0.167635 9.854546 -1.736220
1311875813.587625 -0.059870 10.141920 -1.832012
1311875813.588648 -0.059870 10.141920 -1.832012
1311875813.591943 -0.167635 10.189816 -1.927803
1311875813.593057 -0.167635 10.189816 -1.927803
1311875813.596393 -0.011974 10.237712 -1.927803
1311875813.597414 -0.011974 10.237712 -1.927803
1311875813.600626 0.023948 10.261659 -1.975699
1311875813.601621 0.023948 10.261659 -1.975699
1311875813.602877 0.023948 10.261659 -1.975699
1311875813.603998 0.023948 10.261659 -1.975699
1311875813.607528 0.023948 10.333503 -1.927803
1311875813.608647 0.023948 10.333503 -1.927803
1311875813.611770 0.227505 10.237712 -1.927803
1311875813.612882 0.227505 10.237712 -1.927803
1311875813.616400 0.227505 10.225738 -1.927803
1311875813.617519 0.227505 10.225738 -1.927803
1311875813.618648 0.227505 10.225738 -1.927803
1311875813.621769 0.407114 10.141920 -1.879907
1311875813.622754 0.407114 10.141920 -1.879907
1311875813.626375 0.119739 10.189816 -1.736220
1311875813.627368 0.119739 10.189816 -1.736220
1311875813.628407 0.119739 10.189816 -1.736220
1311875813.633701 0.227505 9.854546 -1.927803
1311875813.635397 0.323296 9.842572 -1.927803
1311875813.636513 0.323296 9.842572 -1.927803
1311875813.637493 0.323296 9.842572 -1.927803
1311875813.640769 0.407114 9.471380 -1.736220
1311875813.641766 0.407114 9.471380 -1.736220
1311875813.647376 0.323296 9.375588 -1.556611
1311875813.648408 0.323296 9.375588 -1.556611
1311875813.651565 0.323296 9.184006 -1.544637
1311875813.652523 0.323296 9.184006 -1.544637
1311875813.655807 0.227505 9.279797 -1.161471
1311875813.656891 0.227505 9.279797 -1.161471
1311875813.660408 0.119739 9.184006 -0.969888
1311875813.661378 0.119739 9.184006 -0.969888
1311875813.662652 0.119739 9.184006 -0.969888
1311875813.663763 0.119739 9.184006 -0.969888
1311875813.666889 0.227505 9.184006 -0.778306
1311875813.667879 0.227505 9.184006 -0.778306
1311875813.671499 0.227505 9.375588 -0.778306
1311875813.672489 0.227505 9.375588 -0.778306
1311875813.675795 0.227505 9.471380 -0.490931
1311875813.676785 0.227505 9.471380 -0.490931
1311875813.680431 0.071844 9.758754 -0.395140
1311875813.681366 0.071844 9.758754 -0.395140
1311875813.682623 0.071844 9.758754 -0.395140
1311875813.683642 0.071844 9.758754 -0.395140
1311875813.686886 0.023948 10.046129 -0.107765
1311875813.687863 0.023948 10.046129 -0.107765
1311875813.691408 0.023948 10.225738 -0.011974
1311875813.692518 0.023948 10.225738 -0.011974
1311875813.695645 0.071844 10.237712 -0.011974
1311875813.696646 0.071844 10.237712 -0.011974
1311875813.697889 0.071844 10.237712 -0.011974
1311875813.698921 0.071844 10.237712 -0.011974
1311875813.702378 0.023948 10.237712 0.275400
1311875813.703485 0.023948 10.237712 0.275400
1311875813.707083 0.023948 10.237712 0.275400
1311875813.708373 0.023948 10.237712 0.275400
1311875813.711494 0.071844 10.141920 0.347244
1311875813.712499 0.071844 10.141920 0.347244
1311875813.715776 0.119739 10.046129 0.371192
1311875813.716793 0.119739 10.046129 0.371192
1311875813.718018 0.119739 10.046129 0.371192
1311875813.719019 0.119739 10.046129 0.371192
1311875813.722515 0.119739 9.902441 0.466983
1311875813.723616 0.119739 9.902441 0.466983
1311875813.726768 0.071844 9.866520 0.383166
1311875813.727875 0.071844 9.866520 0.383166
1311875813.731409 0.119739 9.758754 0.562775
1311875813.732489 0.119739 9.758754 0.562775
1311875813.735619 0.023948 9.830598 0.754358
1311875813.736610 0.023948 9.830598 0.754358
1311875813.737860 0.023948 9.830598 0.754358
1311875813.740214 0.023948 9.830598 0.754358
1311875813.742501 0.023948 9.662963 0.754358
1311875813.743485 0.023948 9.662963 0.754358
1311875813.746671 0.023948 9.662963 0.802253
1311875813.747763 0.023948 9.662963 0.802253
1311875813.750933 0.035922 9.519276 0.850149
1311875813.752426 0.035922 9.519276 0.850149
1311875813.755658 -0.059870 9.471380 0.945941
1311875813.756624 -0.059870 9.471380 0.945941
1311875813.757891 -0.059870 9.471380 0.945941
1311875813.758871 -0.059870 9.471380 0.945941
1311875813.762382 -0.059870 9.483354 1.137524
1311875813.763493 -0.059870 9.483354 1.137524
1311875813.766742 -0.167635 9.519276 1.329106
1311875813.767735 -0.167635 9.519276 1.329106
1311875813.771791 -0.167635 9.471380 1.125550
1311875813.772629 -0.167635 9.471380 1.125550
1311875813.773617 -0.167635 9.471380 1.125550
1311875813.776911 -0.263426 9.758754 1.532663
1311875813.777882 -0.263426 9.758754 1.532663
1311875813.781501 -0.167635 9.758754 1.808064
1311875813.782614 -0.167635 9.758754 1.808064
1311875813.785774 -0.311322 9.854546 1.855959
1311875813.786731 -0.311322 9.854546 1.855959
1311875813.790000 -0.347244 10.046129 1.999647
1311875813.791002 -0.347244 10.046129 1.999647
1311875813.792521 -0.347244 10.046129 1.999647
1311875813.793640 -0.347244 10.046129 1.999647
1311875813.796744 -0.347244 9.950337 1.999647
1311875813.797891 -0.347244 9.950337 1.999647
1311875813.801374 -0.359218 10.213764 1.999647
1311875813.802367 -0.359218 10.213764 1.999647
1311875813.805618 -0.359218 10.141920 1.999647
1311875813.806829 -0.359218 10.141920 1.999647
1311875813.807868 -0.359218 10.141920 1.999647
1311875813.808872 -0.359218 10.141920 1.999647
1311875813.812511 -0.359218 10.141920 1.903855
1311875813.813502 -0.359218 10.141920 1.903855
1311875813.816791 -0.359218 10.189816 1.903855
1311875813.817791 -0.359218 10.189816 1.903855
1311875813.821399 -0.359218 9.950337 1.903855
1311875813.822524 -0.359218 9.950337 1.903855
1311875813.823485 -0.359218 9.950337 1.903855
1311875813.826621 -0.347244 9.878494 1.891881
1311875813.827728 -0.347244 9.878494 1.891881
1311875813.830935 -0.359218 9.854546 1.879907
1311875813.832372 -0.359218 9.854546 1.879907
1311875813.835620 -0.347244 9.854546 1.712272
1311875813.836621 -0.347244 9.854546 1.712272
1311875813.837877 -0.347244 9.854546 1.712272
1311875813.838875 -0.347244 9.854546 1.712272
1311875813.842379 -0.347244 9.950337 1.903855
1311875813.843482 -0.347244 9.950337 1.903855
1311875813.846650 -0.263426 9.950337 1.855959
1311875813.847776 -0.263426 9.950337 1.855959
1311875813.850693 -0.167635 9.902441 1.808064
1311875813.851871 -0.167635 9.902441 1.808064
1311875813.853374 -0.167635 9.902441 1.808064
1311875813.856510 0.023948 9.842572 1.616481
1311875813.857497 0.023948 9.842572 1.616481
1311875813.860775 0.023948 9.662963 1.712272
1311875813.861770 0.023948 9.662963 1.712272
1311875813.865373 0.023948 9.471380 1.616481
1311875813.866401 0.023948 9.471380 1.616481
1311875813.867630 0.023948 9.471380 1.616481
1311875813.868627 0.023948 9.471380 1.616481
1311875813.871884 0.023948 9.279797 1.472794
1311875813.872879 0.023948 9.279797 1.472794
1311875813.876372 0.011974 9.088214 1.424898
1311875813.877363 0.011974 9.088214 1.424898
1311875813.880800 0.023948 9.088214 1.125550
1311875813.881758 0.023948 9.088214 1.125550
1311875813.882878 0.023948 9.088214 1.125550
1311875813.884418 0.023948 9.088214 1.125550
1311875813.887553 -0.059870 9.088214 1.137524
1311875813.888631 -0.059870 9.088214 1.137524
1311875813.891735 -0.011974 9.088214 1.137524
1311875813.892852 -0.011974 9.088214 1.137524
1311875813.896371 -0.011974 9.100188 1.137524
1311875813.897398 -0.011974 9.100188 1.137524
1311875813.900624 -0.011974 9.088214 1.137524
1311875813.901667 -0.011974 9.088214 1.137524
1311875813.902936 -0.011974 9.088214 1.137524
1311875813.903876 -0.011974 9.088214 1.137524
1311875813.907375 -0.167635 9.100188 1.185419
1311875813.908561 -0.167635 9.100188 1.185419
1311875813.911636 -0.167635 9.100188 1.137524
1311875813.912618 -0.167635 9.100188 1.137524
1311875813.915756 -0.167635 9.136110 1.137524
1311875813.916737 -0.167635 9.136110 1.137524
1311875813.920368 -0.167635 9.184006 1.233315
1311875813.921355 -0.167635 9.184006 1.233315
1311875813.922438 -0.167635 9.184006 1.233315
1311875813.925726 -0.263426 9.279797 1.137524
1311875813.926720 -0.263426 9.279797 1.137524
1311875813.929983 -0.311322 9.279797 1.137524
1311875813.930991 -0.311322 9.279797 1.137524
1311875813.932499 -0.311322 9.279797 1.137524
1311875813.933607 -0.311322 9.279797 1.137524
1311875813.936868 -0.347244 9.279797 1.041732
1311875813.937873 -0.347244 9.279797 1.041732
1311875813.941494 -0.347244 9.279797 0.802253
1311875813.942486 -0.347244 9.279797 0.802253
1311875813.946755 -0.263426 9.184006 0.658566
1311875813.947690 -0.263426 9.184006 0.658566
1311875813.948847 -0.263426 9.184006 0.658566
1311875813.951880 -0.335270 9.375588 0.658566
1311875813.953451 -0.335270 9.375588 0.658566
1311875813.956509 -0.347244 9.447432 0.395140
1311875813.957483 -0.347244 9.447432 0.395140
1311875813.960749 -0.263426 9.447432 0.371192
1311875813.961730 -0.263426 9.447432 0.371192
1311875813.963364 -0.263426 9.447432 0.371192
1311875813.966533 -0.347244 9.459406 0.275400
1311875813.967506 -0.347244 9.459406 0.275400
1311875813.970620 -0.347244 9.375588 0.179609
1311875813.971729 -0.347244 9.375588 0.179609
1311875813.973225 -0.347244 9.375588 0.179609
1311875813.976508 -0.359218 9.279797 0.371192
1311875813.977478 -0.359218 9.279797 0.371192
1311875813.980765 -0.359218 9.279797 0.466983
1311875813.981771 -0.359218 9.279797 0.466983
1311875813.983394 -0.359218 9.279797 0.466983
1311875813.987997 -0.359218 9.279797 0.562775
1311875813.990382 -0.538827 9.184006 0.754358
1311875813.991393 -0.538827 9.184006 0.754358
1311875813.992359 -0.538827 9.184006 0.754358
1311875813.995763 -0.538827 9.112162 0.850149
1311875813.996768 -0.538827 9.112162 0.850149
1311875814.000403 -0.538827 8.992423 0.706462
1311875814.001353 -0.538827 8.992423 0.706462
1311875814.002367 -0.538827 8.992423 0.706462
1311875814.005776 -0.443035 8.896631 0.945941
1311875814.006749 -0.443035 8.896631 0.945941
1311875814.010298 -0.538827 8.800840 1.137524
1311875814.011366 -0.538827 8.800840 1.137524
1311875814.012787 -0.538827 8.800840 1.137524
1311875814.013640 -0.538827 8.800840 1.137524
1311875814.016768 -0.538827 8.992423 1.161471
1311875814.017874 -0.538827 8.992423 1.161471
1311875814.021512 -0.538827 9.088214 1.424898
1311875814.022506 -0.538827 9.088214 1.424898
1311875814.025752 -0.646592 9.088214 1.520689
1311875814.026761 -0.646592 9.088214 1.520689
1311875814.028354 -0.646592 9.088214 1.520689
1311875814.030908 -0.694488 9.100188 1.508715
1311875814.031862 -0.694488 9.100188 1.508715
1311875814.035493 -0.694488 9.136110 1.329106
1311875814.036489 -0.694488 9.136110 1.329106
1311875814.037726 -0.694488 9.136110 1.329106
1311875814.039058 -0.694488 9.136110 1.329106
1311875814.041742 -0.730410 9.279797 1.329106
1311875814.042752 -0.730410 9.279797 1.329106
1311875814.046410 -0.730410 9.279797 1.424898
1311875814.047549 -0.730410 9.279797 1.424898
1311875814.048523 -0.730410 9.279797 1.424898
1311875814.051747 -0.730410 9.279797 1.233315
1311875814.052747 -0.730410 9.279797 1.233315
1311875814.056360 -0.742384 9.375588 1.137524
1311875814.057341 -0.742384 9.375588 1.137524
1311875814.060641 -0.754358 9.279797 1.233315
1311875814.061634 -0.754358 9.279797 1.233315
1311875814.062886 -0.754358 9.279797 1.233315
1311875814.063876 -0.754358 9.279797 1.233315
1311875814.067510 -0.826201 9.088214 1.520689
1311875814.068490 -0.826201 9.088214 1.520689
1311875814.071739 -0.730410 9.088214 1.855959
1311875814.072730 -0.730410 9.088214 1.855959
1311875814.076366 -0.718436 8.896631 1.808064
1311875814.077368 -0.718436 8.896631 1.808064
1311875814.080686 -0.730410 8.992423 1.855959
1311875814.081637 -0.730410 8.992423 1.855959
1311875814.082955 -0.730410 8.992423 1.855959
1311875814.083902 -0.730410 8.992423 1.855959
1311875814.087695 -0.730410 9.064266 1.903855
1311875814.090741 -0.718436 9.100188 1.808064
1311875814.091604 -0.718436 9.100188 1.808064
1311875814.092860 -0.718436 9.100188 1.808064
1311875814.093846 -0.718436 9.100188 1.808064
1311875814.097370 -0.730410 9.136110 1.927803
1311875814.098400 -0.730410 9.136110 1.927803
1311875814.101659 -0.730410 9.279797 2.095438
1311875814.102608 -0.730410 9.279797 2.095438
1311875814.105639 -0.730410 9.136110 1.999647
1311875814.106766 -0.730410 9.136110 1.999647
1311875814.108423 -0.730410 9.136110 1.999647
1311875814.111550 -0.538827 9.279797 2.191229
1311875814.112527 -0.538827 9.279797 2.191229
1311875814.115923 -0.538827 9.088214 1.951751
1311875814.116904 -0.538827 9.088214 1.951751
1311875814.117869 -0.538827 9.088214 1.951751
1311875814.121513 -0.538827 9.088214 1.903855
1311875814.122508 -0.538827 9.088214 1.903855
1311875814.125784 -0.646592 9.040318 1.891881
1311875814.126736 -0.646592 9.040318 1.891881
1311875814.128360 -0.646592 9.040318 1.891881
1311875814.131502 -0.538827 8.896631 1.808064
1311875814.132490 -0.538827 8.896631 1.808064
1311875814.135789 -0.646592 8.800840 1.712272
1311875814.136725 -0.646592 8.800840 1.712272
1311875814.140391 -0.538827 8.728996 1.712272
1311875814.141488 -0.538827 8.728996 1.712272
1311875814.142487 -0.538827 8.728996 1.712272
1311875814.145662 -0.347244 8.705048 1.712272
1311875814.146749 -0.347244 8.705048 1.712272
1311875814.148465 -0.347244 8.705048 1.712272
1311875814.151521 -0.538827 8.705048 1.808064
1311875814.152488 -0.538827 8.705048 1.808064
1311875814.155879 -0.538827 8.705048 1.808064
1311875814.156762 -0.538827 8.705048 1.808064
1311875814.158437 -0.538827 8.705048 1.808064
1311875814.161635 -0.646592 8.752944 1.891881
1311875814.162511 -0.646592 8.752944 1.891881
1311875814.165747 -0.718436 8.896631 1.712272
1311875814.166739 -0.718436 8.896631 1.712272
1311875814.170374 -0.730410 9.040318 1.903855
1311875814.171361 -0.730410 9.040318 1.903855
1311875814.172378 -0.730410 9.040318 1.903855
1311875814.175746 -0.730410 9.184006 1.999647
1311875814.176734 -0.730410 9.184006 1.999647
1311875814.178402 -0.730410 9.184006 1.999647
1311875814.182451 -0.730410 9.423484 1.999647
1311875814.185395 -0.538827 9.447432 1.903855
1311875814.186557 -0.538827 9.447432 1.903855
1311875814.187673 -0.538827 9.447432 1.903855
1311875814.188631 -0.538827 9.447432 1.903855
1311875814.191895 -0.730410 9.662963 1.616481
1311875814.192906 -0.730410 9.662963 1.616481
1311875814.196501 -0.730410 9.662963 1.520689
1311875814.197480 -0.730410 9.662963 1.520689
1311875814.200609 -0.730410 9.471380 1.329106
1311875814.201744 -0.730410 9.471380 1.329106
1311875814.202868 -0.730410 9.471380 1.329106
1311875814.204371 -0.730410 9.471380 1.329106
1311875814.207611 -0.646592 9.519276 1.137524
1311875814.208610 -0.646592 9.519276 1.137524
1311875814.211888 -0.538827 9.567171 1.125550
1311875814.212884 -0.538827 9.567171 1.125550
1311875814.216380 -0.538827 9.471380 1.137524
1311875814.217373 -0.538827 9.471380 1.137524
1311875814.220655 -0.359218 9.375588 1.041732
1311875814.221621 -0.359218 9.375588 1.041732
1311875814.222876 -0.359218 9.375588 1.041732
1311875814.223995 -0.359218 9.375588 1.041732
1311875814.227500 -0.347244 9.279797 1.137524
1311875814.228496 -0.347244 9.279797 1.137524
1311875814.231750 -0.263426 9.088214 0.945941
1311875814.232747 -0.263426 9.088214 0.945941
1311875814.236374 -0.263426 9.088214 1.041732
1311875814.237366 -0.263426 9.088214 1.041732
1311875814.240621 -0.011974 8.992423 1.125550
1311875814.241598 -0.011974 8.992423 1.125550
1311875814.242868 -0.011974 8.992423 1.125550
1311875814.243871 -0.011974 8.992423 1.125550
1311875814.247531 -0.167635 8.896631 1.137524
1311875814.248517 -0.167635 8.896631 1.137524
1311875814.251758 0.011974 8.992423 1.329106
1311875814.252732 0.011974 8.992423 1.329106
1311875814.255733 -0.167635 8.896631 1.616481
1311875814.256730 -0.167635 8.896631 1.616481
1311875814.260361 -0.011974 8.992423 1.712272
1311875814.261524 -0.011974 8.992423 1.712272
1311875814.262670 -0.011974 8.992423 1.712272
1311875814.263758 -0.011974 8.992423 1.712272
1311875814.266738 0.023948 8.896631 1.903855
1311875814.267877 0.023948 8.896631 1.903855
1311875814.271364 0.071844 8.896631 1.903855
1311875814.272485 0.071844 8.896631 1.903855
1311875814.275646 0.035922 8.896631 1.855959
1311875814.276650 0.035922 8.896631 1.855959
1311875814.277894 0.035922 8.896631 1.855959
1311875814.278885 0.035922 8.896631 1.855959
1311875814.282527 0.023948 8.752944 1.903855
1311875814.283613 0.023948 8.752944 1.903855
1311875814.286755 0.035922 9.064266 1.712272
1311875814.287735 0.035922 9.064266 1.712272
1311875814.291358 0.023948 9.088214 1.520689
1311875814.292381 0.023948 9.088214 1.520689
1311875814.295634 0.035922 9.088214 1.544637
1311875814.296628 0.035922 9.088214 1.544637
1311875814.297867 0.035922 9.088214 1.544637
1311875814.298866 0.035922 9.088214 1.544637
1311875814.302370 0.119739 8.992423 1.520689
1311875814.303473 0.119739 8.992423 1.520689
1311875814.306647 0.323296 8.896631 1.520689
1311875814.307769 0.323296 8.896631 1.520689
1311875814.310660 0.119739 8.752944 1.472794
1311875814.311795 0.119739 8.752944 1.472794
1311875814.314304 0.119739 8.752944 1.472794
1311875814.316497 0.227505 8.728996 1.520689
1311875814.317478 0.227505 8.728996 1.520689
1311875814.320747 0.227505 8.657153 1.616481
1311875814.321738 0.227505 8.657153 1.616481
1311875814.322979 0.227505 8.657153 1.616481
1311875814.324385 0.227505 8.657153 1.616481
1311875814.327610 0.227505 8.705048 1.808064
1311875814.328610 0.227505 8.705048 1.808064
1311875814.331874 0.119739 8.752944 1.903855
1311875814.332860 0.119739 8.752944 1.903855
1311875814.336362 0.227505 8.752944 1.903855
1311875814.337352 0.227505 8.752944 1.903855
1311875814.340615 0.227505 8.752944 1.951751
1311875814.341600 0.227505 8.752944 1.951751
1311875814.342852 0.227505 8.752944 1.951751
1311875814.343991 0.227505 8.752944 1.951751
1311875814.347493 0.227505 8.896631 2.287021
1311875814.348661 0.227505 8.896631 2.287021
1311875814.351896 0.119739 8.800840 2.382812
1311875814.352868 0.119739 8.800840 2.382812
1311875814.356410 0.227505 8.705048 2.287021
1311875814.357372 0.227505 8.705048 2.287021
1311875814.360745 0.323296 8.705048 2.478604
1311875814.361752 0.323296 8.705048 2.478604
1311875814.363034 0.323296 8.705048 2.478604
1311875814.364386 0.323296 8.705048 2.478604
1311875814.367649 0.407114 8.705048 2.334917
1311875814.368641 0.407114 8.705048 2.334917
1311875814.371860 0.371192 8.705048 2.478604
1311875814.372849 0.371192 8.705048 2.478604
1311875814.376544 0.407114 8.705048 2.310969
1311875814.377490 0.407114 8.705048 2.310969
1311875814.380809 0.227505 8.705048 2.382812
1311875814.381752 0.227505 8.705048 2.382812
1311875814.383021 0.227505 8.705048 2.382812
1311875814.384377 0.227505 8.705048 2.382812
1311875814.387609 0.227505 8.717022 2.287021
1311875814.388599 0.227505 8.717022 2.287021
1311875814.391866 0.323296 8.728996 2.287021
1311875814.392882 0.323296 8.728996 2.287021
1311875814.396523 0.227505 8.800840 2.478604
1311875814.397489 0.227505 8.800840 2.478604
1311875814.400615 0.227505 8.705048 2.310969
1311875814.401604 0.227505 8.705048 2.310969
1311875814.402848 0.227505 8.705048 2.310969
1311875814.403984 0.227505 8.705048 2.310969
1311875814.407499 0.227505 8.800840 2.382812
1311875814.408492 0.227505 8.800840 2.382812
1311875814.411754 0.227505 8.992423 2.478604
1311875814.412739 0.227505 8.992423 2.478604
1311875814.416433 0.119739 9.040318 2.478604
1311875814.417389 0.119739 9.040318 2.478604
1311875814.418542 0.119739 9.040318 2.478604
1311875814.421633 0.071844 8.992423 2.478604
1311875814.422761 0.071844 8.992423 2.478604
1311875814.425996 0.071844 8.992423 2.334917
1311875814.426991 0.071844 8.992423 2.334917
1311875814.430517 0.119739 8.800840 2.382812
1311875814.431599 0.119739 8.800840 2.382812
1311875814.432714 0.119739 8.800840 2.382812
1311875814.433846 0.119739 8.800840 2.382812
1311875814.436828 0.023948 8.896631 2.382812
1311875814.437845 0.023948 8.896631 2.382812
1311875814.441378 0.071844 8.728996 2.478604
1311875814.442520 0.071844 8.728996 2.478604
1311875814.445615 0.071844 8.896631 2.574395
1311875814.446756 0.071844 8.896631 2.574395
1311875814.447992 0.071844 8.896631 2.574395
1311875814.449725 0.071844 8.896631 2.574395
1311875814.452371 0.023948 9.088214 2.287021
1311875814.453380 0.023948 9.088214 2.287021
1311875814.456627 0.023948 9.076240 2.239125
1311875814.457595 0.023948 9.076240 2.239125
1311875814.460763 0.047896 9.088214 2.191229
1311875814.461752 0.047896 9.088214 2.191229
1311875814.465384 0.023948 9.088214 2.191229
1311875814.466370 0.023948 9.088214 2.191229
1311875814.468323 0.023948 9.088214 2.191229
1311875814.470734 0.023948 9.184006 2.239125
1311875814.471732 0.023948 9.184006 2.239125
1311875814.474871 0.023948 9.279797 2.191229
1311875814.476379 0.023948 9.279797 2.191229
1311875814.477482 0.023948 9.279797 2.191229
1311875814.478624 0.023948 9.279797 2.191229
1311875814.481783 0.023948 9.423484 2.191229
1311875814.482901 0.023948 9.423484 2.191229
1311875814.486415 0.023948 9.471380 1.999647
1311875814.487488 0.023948 9.471380 1.999647
1311875814.490616 0.023948 9.471380 2.191229
1311875814.491731 0.023948 9.471380 2.191229
1311875814.492993 0.023948 9.471380 2.191229
1311875814.493989 0.023948 9.471380 2.191229
1311875814.497502 -0.167635 9.471380 2.191229
1311875814.498618 -0.167635 9.471380 2.191229
1311875814.501740 -0.167635 9.471380 2.095438
1311875814.502722 -0.167635 9.471380 2.095438
1311875814.506360 -0.167635 9.471380 2.095438
1311875814.507346 -0.167635 9.471380 2.095438
1311875814.510623 -0.167635 9.471380 2.095438
1311875814.511617 -0.167635 9.471380 2.095438
1311875814.512904 -0.167635 9.471380 2.095438
1311875814.513906 -0.167635 9.471380 2.095438
1311875814.517595 -0.167635 9.495328 1.903855
1311875814.520625 -0.167635 9.495328 1.879907
1311875814.521647 -0.167635 9.495328 1.879907
1311875814.522883 -0.167635 9.495328 1.879907
1311875814.524055 -0.167635 9.495328 1.879907
1311875814.527496 -0.311322 9.662963 1.927803
1311875814.528505 -0.311322 9.662963 1.927803
1311875814.531755 -0.059870 9.567171 1.808064
1311875814.532731 -0.059870 9.567171 1.808064
1311875814.536233 -0.059870 9.471380 1.855959
1311875814.537351 -0.059870 9.471380 1.855959
1311875814.540613 -0.311322 9.471380 1.855959
1311875814.541591 -0.311322 9.471380 1.855959
1311875814.542887 -0.311322 9.471380 1.855959
1311875814.543899 -0.311322 9.471380 1.855959
1311875814.547490 -0.167635 9.279797 1.520689
1311875814.548506 -0.167635 9.279797 1.520689
1311875814.551766 -0.167635 9.184006 1.616481
1311875814.552737 -0.167635 9.184006 1.616481
1311875814.556387 -0.263426 9.088214 1.544637
1311875814.557375 -0.263426 9.088214 1.544637
1311875814.560609 -0.059870 9.088214 1.808064
1311875814.561623 -0.059870 9.088214 1.808064
1311875814.562864 -0.059870 9.088214 1.808064
1311875814.564011 -0.059870 9.088214 1.808064
1311875814.567494 -0.167635 9.088214 1.712272
1311875814.568479 -0.167635 9.088214 1.712272
1311875814.571771 -0.059870 9.064266 1.520689
1311875814.572727 -0.059870 9.064266 1.520689
1311875814.576361 -0.059870 9.136110 1.568585
1311875814.577348 -0.059870 9.136110 1.568585
1311875814.580639 -0.167635 9.088214 1.568585
1311875814.581621 -0.167635 9.088214 1.568585
1311875814.582912 -0.167635 9.088214 1.568585
1311875814.583878 -0.167635 9.088214 1.568585
1311875814.587501 -0.167635 9.088214 1.568585
1311875814.588499 -0.167635 9.088214 1.568585
1311875814.591929 -0.167635 9.136110 1.616481
1311875814.592862 -0.167635 9.136110 1.616481
1311875814.593855 -0.167635 9.136110 1.616481
1311875814.597481 -0.311322 9.279797 1.712272
1311875814.598471 -0.311322 9.279797 1.712272
1311875814.601741 -0.167635 9.184006 1.568585
1311875814.602725 -0.167635 9.184006 1.568585
1311875814.606035 -0.167635 9.184006 1.712272
1311875814.606978 -0.167635 9.184006 1.712272
1311875814.610570 -0.263426 9.279797 1.712272
1311875814.611621 -0.263426 9.279797 1.712272
1311875814.612756 -0.263426 9.279797 1.712272
1311875814.613855 -0.263426 9.279797 1.712272
1311875814.617353 -0.263426 9.184006 1.808064
1311875814.618393 -0.263426 9.184006 1.808064
1311875814.621666 -0.347244 9.279797 1.712272
1311875814.622598 -0.347244 9.279797 1.712272
1311875814.625755 -0.347244 9.279797 1.903855
1311875814.626752 -0.347244 9.279797 1.903855
1311875814.630375 -0.335270 9.184006 1.903855
1311875814.631499 -0.335270 9.184006 1.903855
1311875814.632483 -0.335270 9.184006 1.903855
1311875814.635731 -0.347244 9.112162 1.903855
1311875814.636730 -0.347244 9.112162 1.903855
1311875814.638236 -0.347244 9.112162 1.903855
1311875814.639344 -0.347244 9.112162 1.903855
1311875814.642614 -0.335270 9.088214 1.712272
1311875814.643611 -0.335270 9.088214 1.712272
1311875814.646742 -0.347244 9.088214 1.903855
1311875814.647859 -0.347244 9.088214 1.903855
1311875814.651361 -0.347244 9.088214 1.903855
1311875814.652541 -0.347244 9.088214 1.903855
1311875814.655630 -0.263426 9.040318 1.903855
1311875814.656619 -0.263426 9.040318 1.903855
1311875814.657876 -0.263426 9.040318 1.903855
1311875814.658889 -0.263426 9.040318 1.903855
1311875814.662492 -0.347244 9.088214 1.999647
1311875814.663476 -0.347244 9.088214 1.999647
1311875814.666749 -0.335270 9.088214 1.951751
1311875814.667737 -0.335270 9.088214 1.951751
1311875814.671548 -0.263426 9.088214 2.239125
1311875814.672346 -0.263426 9.088214 2.239125
1311875814.675606 -0.311322 9.076240 2.095438
1311875814.676601 -0.311322 9.076240 2.095438
1311875814.677852 -0.311322 9.076240 2.095438
1311875814.678850 -0.311322 9.076240 2.095438
1311875814.682535 -0.347244 9.088214 2.287021
1311875814.683492 -0.347244 9.088214 2.287021
1311875814.686756 -0.347244 9.088214 2.095438
1311875814.687864 -0.347244 9.088214 2.095438
1311875814.691401 -0.311322 8.896631 2.095438
1311875814.692527 -0.311322 8.896631 2.095438
1311875814.695632 -0.347244 8.896631 1.903855
1311875814.696751 -0.347244 8.896631 1.903855
1311875814.697845 -0.347244 8.896631 1.903855
1311875814.698843 -0.347244 8.896631 1.903855
1311875814.705414 -0.347244 8.992423 1.903855
1311875814.706397 -0.347244 9.040318 1.903855
1311875814.707382 -0.347244 9.040318 1.903855
1311875814.710649 -0.347244 8.992423 1.903855
1311875814.711608 -0.347244 8.992423 1.903855
1311875814.712862 -0.347244 8.992423 1.903855
1311875814.713855 -0.347244 8.992423 1.903855
1311875814.717487 -0.347244 9.088214 1.951751
1311875814.718498 -0.347244 9.088214 1.951751
1311875814.721586 -0.263426 8.992423 1.903855
1311875814.722583 -0.263426 8.992423 1.903855
1311875814.725734 -0.335270 9.088214 1.915829
1311875814.726739 -0.335270 9.088214 1.915829
1311875814.728354 -0.335270 9.088214 1.915829
1311875814.731487 -0.263426 9.040318 1.927803
1311875814.732487 -0.263426 9.040318 1.927803
1311875814.735605 -0.167635 8.992423 1.915829
1311875814.736592 -0.167635 8.992423 1.915829
1311875814.737841 -0.167635 8.992423 1.915829
1311875814.738848 -0.167635 8.992423 1.915829
1311875814.742487 -0.167635 8.896631 2.095438
1311875814.743618 -0.167635 8.896631 2.095438
1311875814.746662 -0.167635 8.896631 2.095438
1311875814.747753 -0.167635 8.896631 2.095438
1311875814.750867 -0.167635 8.800840 2.095438
1311875814.752360 -0.167635 8.800840 2.095438
1311875814.755635 -0.167635 8.800840 2.191229
1311875814.756645 -0.167635 8.800840 2.191229
1311875814.757836 -0.167635 8.800840 2.191229
1311875814.758842 -0.167635 8.800840 2.191229
1311875814.762376 -0.167635 8.800840 2.287021
1311875814.763476 -0.167635 8.800840 2.287021
1311875814.766623 -0.011974 8.705048 2.191229
1311875814.767735 -0.011974 8.705048 2.191229
1311875814.770730 -0.059870 8.705048 2.287021
1311875814.771723 -0.059870 8.705048 2.287021
1311875814.774858 -0.167635 8.705048 2.263073
1311875814.776349 -0.167635 8.705048 2.263073
1311875814.777468 -0.167635 8.705048 2.263073
1311875814.778599 -0.167635 8.705048 2.263073
1311875814.781856 -0.263426 8.705048 2.287021
1311875814.782732 -0.263426 8.705048 2.287021
1311875814.786369 -0.311322 8.705048 2.287021
1311875814.787350 -0.311322 8.705048 2.287021
1311875814.790660 -0.167635 8.705048 2.287021
1311875814.791609 -0.167635 8.705048 2.287021
1311875814.792861 -0.167635 8.705048 2.287021
1311875814.793869 -0.167635 8.705048 2.287021
1311875814.797477 -0.263426 8.705048 2.334917
1311875814.798498 -0.263426 8.705048 2.334917
1311875814.801752 -0.347244 8.705048 2.382812
1311875814.802717 -0.347244 8.705048 2.382812
1311875814.806230 -0.347244 8.705048 2.574395
1311875814.807485 -0.347244 8.705048 2.574395
1311875814.810616 -0.347244 8.705048 2.670187
1311875814.811678 -0.347244 8.705048 2.670187
1311875814.812959 -0.347244 8.705048 2.670187
1311875814.813866 -0.347244 8.705048 2.670187
1311875814.817487 -0.347244 8.705048 2.670187
1311875814.818485 -0.347244 8.705048 2.670187
1311875814.821748 -0.359218 8.896631 2.861770
1311875814.822743 -0.359218 8.896631 2.861770
1311875814.826367 -0.347244 8.896631 2.861770
1311875814.827350 -0.347244 8.896631 2.861770
1311875814.830595 -0.347244 8.992423 2.861770
1311875814.831614 -0.347244 8.992423 2.861770
1311875814.832840 -0.347244 8.992423 2.861770
1311875814.833848 -0.347244 8.992423 2.861770
1311875814.837475 -0.347244 9.040318 2.682161
1311875814.838477 -0.347244 9.040318 2.682161
1311875814.841731 -0.347244 9.088214 2.957561
1311875814.842744 -0.347244 9.088214 2.957561
1311875814.846376 -0.347244 8.992423 2.861770
1311875814.847645 -0.347244 8.992423 2.861770
1311875814.851802 -0.347244 9.076240 2.957561
1311875814.852605 -0.347244 9.076240 2.957561
1311875814.853729 -0.347244 9.076240 2.957561
1311875814.856853 -0.395140 9.088214 2.861770
1311875814.857837 -0.395140 9.088214 2.861770
1311875814.861371 -0.359218 9.088214 2.861770
1311875814.862373 -0.359218 9.088214 2.861770
1311875814.865621 -0.359218 9.088214 2.861770
1311875814.866621 -0.359218 9.088214 2.861770
1311875814.867856 -0.359218 9.088214 2.861770
1311875814.868852 -0.359218 9.088214 2.861770
1311875814.872477 -0.359218 8.992423 2.670187
1311875814.873563 -0.359218 8.992423 2.670187
1311875814.876743 -0.359218 9.088214 2.718082
1311875814.877721 -0.359218 9.088214 2.718082
1311875814.882707 -0.443035 8.992423 2.574395
1311875814.885367 -0.359218 9.088214 2.478604
1311875814.886497 -0.359218 9.088214 2.478604
1311875814.887496 -0.359218 9.088214 2.478604
1311875814.890663 -0.359218 9.088214 2.478604
1311875814.891714 -0.359218 9.088214 2.478604
1311875814.893328 -0.359218 9.088214 2.478604
1311875814.895840 -0.335270 9.088214 2.478604
1311875814.896876 -0.335270 9.088214 2.478604
1311875814.900464 -0.335270 9.088214 2.670187
1311875814.901467 -0.335270 9.088214 2.670187
1311875814.902715 -0.335270 9.088214 2.670187
1311875814.903716 -0.335270 9.088214 2.670187
1311875814.906733 -0.167635 9.088214 2.670187
1311875814.907843 -0.167635 9.088214 2.670187
1311875814.911494 -0.167635 9.088214 2.957561
1311875814.912519 -0.167635 9.088214 2.957561
1311875814.915754 -0.059870 9.112162 2.861770
1311875814.916772 -0.059870 9.112162 2.861770
1311875814.917997 -0.059870 9.112162 2.861770
1311875814.918973 -0.059870 9.112162 2.861770
1311875814.922495 -0.167635 9.112162 3.005457
1311875814.923608 -0.167635 9.112162 3.005457
1311875814.926746 -0.167635 9.184006 2.861770
1311875814.927993 -0.167635 9.184006 2.861770
1311875814.931331 -0.263426 9.088214 2.861770
1311875814.932346 -0.263426 9.088214 2.861770
1311875814.935602 -0.167635 9.088214 2.670187
1311875814.936725 -0.167635 9.088214 2.670187
1311875814.937842 -0.167635 9.088214 2.670187
1311875814.938966 -0.167635 9.088214 2.670187
1311875814.942487 -0.167635 8.992423 2.670187
1311875814.943594 -0.167635 8.992423 2.670187
1311875814.946786 -0.167635 8.896631 2.670187
1311875814.947875 -0.167635 8.896631 2.670187
1311875814.951373 -0.167635 9.088214 2.670187
1311875814.952368 -0.167635 9.088214 2.670187
1311875814.955604 -0.167635 8.896631 2.622291
1311875814.956596 -0.167635 8.896631 2.622291
1311875814.957831 -0.167635 8.896631 2.622291
1311875814.958839 -0.167635 8.896631 2.622291
1311875814.962334 -0.167635 9.088214 2.670187
1311875814.963512 -0.167635 9.088214 2.670187
1311875814.966590 -0.011974 9.088214 2.670187
1311875814.967758 -0.011974 9.088214 2.670187
1311875814.970641 -0.167635 9.184006 2.670187
1311875814.971722 -0.167635 9.184006 2.670187
1311875814.973218 -0.167635 9.184006 2.670187
1311875814.974347 -0.167635 9.184006 2.670187
1311875814.977624 0.011974 9.088214 2.670187
1311875814.978620 0.011974 9.088214 2.670187
1311875814.981766 0.023948 9.112162 2.765978
1311875814.982862 0.023948 9.112162 2.765978
1311875814.986380 0.023948 9.088214 2.670187
1311875814.987475 0.023948 9.088214 2.670187
1311875814.990618 0.023948 9.112162 2.574395
1311875814.991727 0.023948 9.112162 2.574395
1311875814.992856 0.023948 9.112162 2.574395
1311875814.994042 0.023948 9.112162 2.574395
1311875814.997480 0.011974 9.088214 2.670187
1311875814.998464 0.011974 9.088214 2.670187
1311875815.001728 0.023948 9.088214 2.382812
1311875815.002837 0.023948 9.088214 2.382812
1311875815.006370 0.119739 9.040318 2.287021
1311875815.007475 0.119739 9.040318 2.287021
1311875815.010610 0.023948 9.076240 2.191229
1311875815.011632 0.023948 9.076240 2.191229
1311875815.012867 0.023948 9.076240 2.191229
1311875815.014047 0.023948 9.076240 2.191229
1311875815.017479 0.023948 9.088214 2.095438
1311875815.018476 0.023948 9.088214 2.095438
1311875815.021847 0.023948 9.088214 2.287021
1311875815.022847 0.023948 9.088214 2.287021
1311875815.026370 0.023948 9.040318 2.287021
1311875815.027346 0.023948 9.040318 2.287021
1311875815.030619 0.119739 8.992423 2.287021
1311875815.031593 0.119739 8.992423 2.287021
1311875815.032833 0.119739 8.992423 2.287021
1311875815.033880 0.119739 8.992423 2.287021
1311875815.037483 0.227505 8.896631 2.382812
1311875815.038467 0.227505 8.896631 2.382812
1311875815.041726 0.227505 9.040318 2.478604
1311875815.042734 0.227505 9.040318 2.478604
1311875815.045884 0.227505 9.040318 2.478604
1311875815.046990 0.227505 9.040318 2.478604
1311875815.050491 0.227505 8.992423 2.478604
1311875815.051597 0.227505 8.992423 2.478604
1311875815.052864 0.227505 8.992423 2.478604
1311875815.053837 0.227505 8.992423 2.478604
1311875815.057335 0.323296 9.088214 2.670187
1311875815.058354 0.323296 9.088214 2.670187
1311875815.061595 0.407114 9.076240 2.861770
1311875815.062710 0.407114 9.076240 2.861770
1311875815.065726 0.323296 8.896631 2.670187
1311875815.066718 0.323296 8.896631 2.670187
1311875815.069977 0.323296 8.896631 2.670187
1311875815.070966 0.323296 8.896631 2.670187
1311875815.072473 0.323296 8.896631 2.670187
1311875815.073590 0.323296 8.896631 2.670187
1311875815.076724 0.227505 8.800840 2.670187
1311875815.077834 0.227505 8.800840 2.670187
1311875815.081357 0.227505 8.681100 2.861770
1311875815.082482 0.227505 8.681100 2.861770
1311875815.085629 0.119739 8.705048 2.861770
1311875815.086649 0.119739 8.705048 2.861770
1311875815.088023 0.119739 8.705048 2.861770
1311875815.089377 0.119739 8.705048 2.861770
1311875815.092587 0.323296 8.693074 2.957561
1311875815.093601 0.323296 8.693074 2.957561
1311875815.096888 0.371192 8.705048 3.005457
1311875815.097859 0.371192 8.705048 3.005457
1311875815.101366 0.227505 8.728996 3.053353
1311875815.102362 0.227505 8.728996 3.053353
1311875815.105610 0.407114 8.800840 3.053353
1311875815.106603 0.407114 8.800840 3.053353
1311875815.107876 0.407114 8.800840 3.053353
1311875815.108939 0.407114 8.800840 3.053353
1311875815.112558 0.323296 8.896631 3.101248
1311875815.113490 0.323296 8.896631 3.101248
1311875815.116730 0.407114 8.896631 3.244935
1311875815.117728 0.407114 8.896631 3.244935
1311875815.121358 0.371192 8.752944 3.053353
1311875815.122372 0.371192 8.752944 3.053353
1311875815.125614 0.407114 8.800840 3.053353
1311875815.126621 0.407114 8.800840 3.053353
1311875815.127866 0.407114 8.800840 3.053353
1311875815.128860 0.407114 8.800840 3.053353
1311875815.132475 0.407114 8.752944 2.861770
1311875815.133506 0.407114 8.752944 2.861770
1311875815.136743 0.407114 8.728996 3.005457
1311875815.137717 0.407114 8.728996 3.005457
1311875815.141352 0.407114 8.513465 3.041379
1311875815.142339 0.407114 8.513465 3.041379
1311875815.145612 0.371192 8.705048 3.053353
1311875815.146607 0.371192 8.705048 3.053353
1311875815.147863 0.371192 8.705048 3.053353
1311875815.148890 0.371192 8.705048 3.053353
1311875815.152519 0.407114 8.693074 3.005457
1311875815.153536 0.407114 8.693074 3.005457
1311875815.156746 0.407114 8.705048 3.053353
1311875815.157720 0.407114 8.705048 3.053353
1311875815.160708 0.407114 8.705048 3.053353
1311875815.161726 0.407114 8.705048 3.053353
1311875815.163381 0.407114 8.705048 3.053353
1311875815.166365 0.455009 8.728996 3.053353
1311875815.167501 0.455009 8.728996 3.053353
1311875815.170588 0.455009 8.896631 3.053353
1311875815.171708 0.455009 8.896631 3.053353
1311875815.173241 0.455009 8.896631 3.053353
1311875815.174340 0.455009 8.896631 3.053353
1311875815.177598 0.455009 8.896631 2.765978
1311875815.178598 0.455009 8.896631 2.765978
1311875815.181792 0.455009 8.896631 2.957561
1311875815.182879 0.455009 8.896631 2.957561
1311875815.186400 0.598697 8.896631 2.718082
1311875815.187471 0.598697 8.896631 2.718082
1311875815.190657 0.598697 8.896631 2.670187
1311875815.191623 0.598697 8.896631 2.670187
1311875815.192857 0.598697 8.896631 2.670187
1311875815.193831 0.598697 8.896631 2.670187
1311875815.197492 0.502905 8.896631 2.670187
1311875815.198489 0.502905 8.896631 2.670187
1311875815.201713 0.502905 8.717022 2.718082
1311875815.202720 0.502905 8.717022 2.718082
1311875815.206351 0.455009 8.752944 2.478604
1311875815.207787 0.455009 8.752944 2.478604
1311875815.210649 0.407114 8.896631 2.478604
1311875815.211625 0.407114 8.896631 2.478604
1311875815.212871 0.407114 8.896631 2.478604
1311875815.213843 0.407114 8.896631 2.478604
1311875815.217497 0.407114 8.992423 2.287021
1311875815.218486 0.407114 8.992423 2.287021
1311875815.221622 0.407114 9.040318 2.287021
1311875815.222729 0.407114 9.040318 2.287021
1311875815.226370 0.407114 8.992423 2.095438
1311875815.227346 0.407114 8.992423 2.095438
1311875815.228540 0.407114 8.992423 2.095438
1311875815.231735 0.395140 9.040318 2.239125
1311875815.232738 0.395140 9.040318 2.239125
1311875815.236349 0.071844 9.136110 2.287021
1311875815.237337 0.071844 9.136110 2.287021
1311875815.240604 0.371192 9.064266 2.239125
1311875815.241637 0.371192 9.064266 2.239125
1311875815.242846 0.371192 9.064266 2.239125
1311875815.243837 0.371192 9.064266 2.239125
1311875815.247570 0.407114 8.992423 2.287021
1311875815.248478 0.407114 8.992423 2.287021
1311875815.251732 0.407114 9.088214 2.622291
1311875815.252733 0.407114 9.088214 2.622291
1311875815.256364 0.407114 9.088214 2.287021
1311875815.257349 0.407114 9.088214 2.287021
1311875815.260610 0.323296 9.088214 2.287021
1311875815.261592 0.323296 9.088214 2.287021
1311875815.262838 0.323296 9.088214 2.287021
1311875815.263829 0.323296 9.088214 2.287021
1311875815.267507 0.407114 9.279797 2.095438
1311875815.268466 0.407114 9.279797 2.095438
1311875815.271717 0.371192 9.279797 2.191229
1311875815.272712 0.371192 9.279797 2.191229
1311875815.276358 0.407114 9.375588 2.095438
1311875815.277390 0.407114 9.375588 2.095438
1311875815.278414 0.407114 9.375588 2.095438
1311875815.281761 0.323296 9.279797 2.095438
1311875815.282737 0.323296 9.279797 2.095438
1311875815.285865 0.395140 9.375588 1.999647
1311875815.287006 0.395140 9.375588 1.999647
1311875815.290480 0.323296 9.279797 1.903855
1311875815.291586 0.323296 9.279797 1.903855
1311875815.292842 0.323296 9.279797 1.903855
1311875815.293847 0.323296 9.279797 1.903855
1311875815.297491 0.407114 9.088214 1.616481
1311875815.298511 0.407114 9.088214 1.616481
1311875815.301720 0.227505 9.088214 1.903855
1311875815.302706 0.227505 9.088214 1.903855
1311875815.306220 0.227505 9.088214 1.903855
1311875815.307477 0.227505 9.088214 1.903855
1311875815.308463 0.227505 9.088214 1.903855
1311875815.311774 0.227505 9.088214 1.903855
1311875815.312728 0.227505 9.088214 1.903855
1311875815.316399 0.227505 9.088214 1.951751
1311875815.317356 0.227505 9.088214 1.951751
1311875815.318348 0.227505 9.088214 1.951751
1311875815.321710 0.071844 9.088214 2.095438
1311875815.322734 0.071844 9.088214 2.095438
1311875815.326362 0.227505 9.040318 2.239125
1311875815.327346 0.227505 9.040318 2.239125
1311875815.328362 0.227505 9.040318 2.239125
1311875815.331737 0.323296 8.992423 2.191229
1311875815.332720 0.323296 8.992423 2.191229
1311875815.336228 0.119739 8.992423 2.263073
1311875815.337468 0.119739 8.992423 2.263073
1311875815.338468 0.119739 8.992423 2.263073
1311875815.341590 0.227505 8.992423 2.287021
1311875815.342707 0.227505 8.992423 2.287021
1311875815.346014 0.227505 9.064266 2.478604
1311875815.347373 0.227505 9.064266 2.478604
1311875815.350529 0.227505 9.088214 2.263073
1311875815.351615 0.227505 9.088214 2.263073
1311875815.352847 0.227505 9.088214 2.263073
1311875815.353846 0.227505 9.088214 2.263073
1311875815.357351 0.227505 9.279797 2.239125
1311875815.358449 0.227505 9.279797 2.239125
1311875815.361605 0.227505 9.279797 2.095438
1311875815.362718 0.227505 9.279797 2.095438
1311875815.365906 0.119739 9.375588 1.903855
1311875815.366866 0.119739 9.375588 1.903855
1311875815.370470 0.119739 9.375588 1.903855
1311875815.371586 0.119739 9.375588 1.903855
1311875815.372704 0.119739 9.375588 1.903855
1311875815.373714 0.119739 9.375588 1.903855
1311875815.376897 0.371192 9.100188 1.903855
1311875815.377847 0.371192 9.100188 1.903855
1311875815.381378 0.047896 9.088214 1.903855
1311875815.382349 0.047896 9.088214 1.903855
1311875815.385594 0.323296 9.076240 1.903855
1311875815.386612 0.323296 9.076240 1.903855
1311875815.387860 0.323296 9.076240 1.903855
1311875815.388863 0.323296 9.076240 1.903855
1311875815.392490 0.323296 8.992423 1.712272
1311875815.393463 0.323296 8.992423 1.712272
1311875815.396756 0.227505 9.076240 1.808064
1311875815.397697 0.227505 9.076240 1.808064
1311875815.401352 0.227505 8.896631 1.903855
1311875815.402346 0.227505 8.896631 1.903855
1311875815.405591 0.227505 8.896631 1.903855
1311875815.406583 0.227505 8.896631 1.903855
1311875815.407839 0.227505 8.896631 1.903855
1311875815.408854 0.227505 8.896631 1.903855
1311875815.412506 0.323296 8.800840 1.951751
1311875815.413556 0.323296 8.800840 1.951751
1311875815.416780 0.227505 8.800840 2.275047
1311875815.417728 0.227505 8.800840 2.275047
1311875815.421385 0.323296 8.705048 2.095438
1311875815.422354 0.323296 8.705048 2.095438
1311875815.425614 0.323296 8.705048 2.095438
1311875815.426579 0.323296 8.705048 2.095438
1311875815.427847 0.323296 8.705048 2.095438
1311875815.428836 0.323296 8.705048 2.095438
1311875815.432487 0.407114 8.896631 2.239125
1311875815.433504 0.407114 8.896631 2.239125
1311875815.436720 0.227505 8.896631 2.287021
1311875815.437713 0.227505 8.896631 2.287021
1311875815.440968 0.119739 8.896631 2.287021
1311875815.441972 0.119739 8.896631 2.287021
1311875815.445472 0.119739 8.992423 2.191229
1311875815.447075 0.119739 8.992423 2.191229
1311875815.448361 0.119739 8.992423 2.191229
1311875815.451643 0.023948 9.088214 2.191229
1311875815.452593 0.023948 9.088214 2.191229
1311875815.453586 0.023948 9.088214 2.191229
1311875815.456859 0.023948 9.088214 1.927803
1311875815.457838 0.023948 9.088214 1.927803
1311875815.461479 0.023948 9.088214 1.903855
1311875815.462456 0.023948 9.088214 1.903855
1311875815.465711 0.119739 9.088214 1.903855
1311875815.466708 0.119739 9.088214 1.903855
1311875815.468218 0.119739 9.088214 1.903855
1311875815.469313 0.119739 9.088214 1.903855
1311875815.472576 0.023948 9.184006 1.903855
1311875815.473576 0.023948 9.184006 1.903855
1311875815.476845 0.023948 9.064266 1.903855
1311875815.477868 0.023948 9.064266 1.903855
1311875815.481343 0.023948 9.088214 1.903855
1311875815.482380 0.023948 9.088214 1.903855
1311875815.485582 0.023948 9.184006 1.903855
1311875815.486569 0.023948 9.184006 1.903855
1311875815.487825 0.023948 9.184006 1.903855
1311875815.488850 0.023948 9.184006 1.903855
1311875815.492485 0.023948 9.279797 1.903855
1311875815.493456 0.023948 9.279797 1.903855
1311875815.496771 0.023948 9.375588 2.095438
1311875815.497735 0.023948 9.375588 2.095438
1311875815.500727 0.023948 9.423484 1.903855
1311875815.501719 0.023948 9.423484 1.903855
1311875815.505341 0.071844 9.375588 1.712272
1311875815.506336 0.071844 9.375588 1.712272
1311875815.507588 0.071844 9.375588 1.712272
1311875815.508603 0.071844 9.375588 1.712272
1311875815.511872 0.119739 9.279797 1.903855
1311875815.512901 0.119739 9.279797 1.903855
1311875815.516517 0.119739 9.375588 1.808064
1311875815.517459 0.119739 9.375588 1.808064
1311875815.520727 0.023948 9.184006 1.808064
1311875815.521754 0.023948 9.184006 1.808064
1311875815.523341 0.023948 9.184006 1.808064
1311875815.526473 0.071844 9.184006 1.712272
1311875815.527575 0.071844 9.184006 1.712272
1311875815.530710 0.227505 9.136110 1.568585
1311875815.531709 0.227505 9.136110 1.568585
1311875815.535363 0.071844 9.184006 1.712272
1311875815.536465 0.071844 9.184006 1.712272
1311875815.537457 0.071844 9.184006 1.712272
1311875815.540715 0.023948 9.279797 1.712272
1311875815.541732 0.023948 9.279797 1.712272
1311875815.543334 0.023948 9.279797 1.712272
1311875815.546501 0.227505 9.184006 1.520689
1311875815.547469 0.227505 9.184006 1.520689
1311875815.551577 0.035922 9.184006 1.329106
1311875815.552502 0.035922 9.184006 1.329106
1311875815.553467 0.035922 9.184006 1.329106
1311875815.556734 0.119739 9.184006 1.233315
1311875815.557733 0.119739 9.184006 1.233315
1311875815.561363 0.119739 9.184006 1.137524
1311875815.562352 0.119739 9.184006 1.137524
1311875815.565593 0.071844 9.279797 1.137524
1311875815.566672 0.071844 9.279797 1.137524
1311875815.567851 0.071844 9.279797 1.137524
1311875815.568823 0.071844 9.279797 1.137524
1311875815.572412 0.227505 9.279797 1.137524
1311875815.573455 0.227505 9.279797 1.137524
1311875815.576729 0.071844 9.459406 1.233315
1311875815.577801 0.071844 9.459406 1.233315
1311875815.580752 0.227505 9.375588 1.329106
1311875815.581741 0.227505 9.375588 1.329106
1311875815.585351 0.227505 9.279797 1.329106
1311875815.586472 0.227505 9.279797 1.329106
1311875815.587465 0.227505 9.279797 1.329106
1311875815.590721 0.227505 9.375588 1.185419
1311875815.591717 0.227505 9.375588 1.185419
1311875815.595334 0.227505 9.459406 1.137524
1311875815.596450 0.227505 9.459406 1.137524
1311875815.597463 0.227505 9.459406 1.137524
1311875815.600722 0.119739 9.447432 0.945941
1311875815.601707 0.119739 9.447432 0.945941
1311875815.605347 0.071844 9.423484 0.945941
1311875815.606468 0.071844 9.423484 0.945941
1311875815.607455 0.071844 9.423484 0.945941
1311875815.611237 0.071844 9.423484 0.945941
1311875815.612693 0.071844 9.423484 0.945941
1311875815.615476 0.119739 9.279797 0.850149
1311875815.616480 0.119739 9.279797 0.850149
1311875815.617717 0.119739 9.279797 0.850149
1311875815.618735 0.119739 9.279797 0.850149
1311875815.621864 0.227505 9.375588 1.041732
1311875815.622842 0.227505 9.375588 1.041732
1311875815.626346 0.119739 9.471380 1.137524
1311875815.627464 0.119739 9.471380 1.137524
1311875815.630596 0.119739 9.375588 1.137524
1311875815.631580 0.119739 9.375588 1.137524
1311875815.632844 0.119739 9.375588 1.137524
1311875815.633857 0.119739 9.375588 1.137524
1311875815.637900 0.323296 9.136110 1.137524
1311875815.640589 0.227505 9.136110 1.185419
1311875815.641594 0.227505 9.136110 1.185419
1311875815.642833 0.227505 9.136110 1.185419
1311875815.643825 0.227505 9.136110 1.185419
1311875815.647473 0.431062 9.040318 1.113576
1311875815.648467 0.431062 9.040318 1.113576
1311875815.651738 0.407114 9.088214 1.041732
1311875815.652724 0.407114 9.088214 1.041732
1311875815.656372 0.407114 9.088214 0.945941
1311875815.657503 0.407114 9.088214 0.945941
1311875815.658456 0.407114 9.088214 0.945941
1311875815.661723 0.407114 9.100188 1.041732
1311875815.662732 0.407114 9.100188 1.041732
1311875815.666364 0.407114 9.112162 1.137524
1311875815.667324 0.407114 9.112162 1.137524
1311875815.668326 0.407114 9.112162 1.137524
1311875815.671705 0.407114 9.088214 1.329106
1311875815.672700 0.407114 9.088214 1.329106
1311875815.676342 0.407114 8.896631 1.329106
1311875815.677455 0.407114 8.896631 1.329106
1311875815.678469 0.407114 8.896631 1.329106
1311875815.681796 0.407114 8.752944 1.520689
1311875815.682756 0.407114 8.752944 1.520689
1311875815.686383 0.455009 8.705048 1.329106
1311875815.687325 0.455009 8.705048 1.329106
1311875815.690593 0.407114 8.681100 1.520689
1311875815.691730 0.407114 8.681100 1.520689
1311875815.692981 0.407114 8.681100 1.520689
1311875815.693984 0.407114 8.681100 1.520689
1311875815.697487 0.431062 8.705048 1.424898
1311875815.698582 0.431062 8.705048 1.424898
1311875815.701716 0.598697 8.705048 1.329106
1311875815.702709 0.598697 8.705048 1.329106
1311875815.706341 0.502905 8.728996 1.329106
1311875815.707327 0.502905 8.728996 1.329106
1311875815.710652 0.431062 8.728996 1.149497
1311875815.711725 0.431062 8.728996 1.149497
1311875815.712855 0.431062 8.728996 1.149497
1311875815.713951 0.431062 8.728996 1.149497
1311875815.717526 0.407114 8.992423 1.137524
1311875815.718465 0.407114 8.992423 1.137524
1311875815.721738 0.431062 9.088214 1.041732
1311875815.722785 0.431062 9.088214 1.041732
1311875815.726352 0.455009 9.136110 0.945941
1311875815.727322 0.455009 9.136110 0.945941
1311875815.728320 0.455009 9.136110 0.945941
1311875815.731714 0.598697 9.375588 0.802253
1311875815.732738 0.598697 9.375588 0.802253
1311875815.736340 0.502905 9.279797 0.754358
1311875815.737444 0.502905 9.279797 0.754358
1311875815.738458 0.502905 9.279797 0.754358
1311875815.741715 0.502905 9.471380 0.706462
1311875815.742707 0.502905 9.471380 0.706462
1311875815.745983 0.431062 9.471380 0.802253
1311875815.746967 0.431062 9.471380 0.802253
1311875815.750497 0.502905 9.423484 0.945941
1311875815.751591 0.502905 9.423484 0.945941
1311875815.752927 0.502905 9.423484 0.945941
1311875815.753836 0.502905 9.423484 0.945941
1311875815.757464 0.431062 9.375588 1.041732
1311875815.758464 0.431062 9.375588 1.041732
1311875815.761580 0.502905 9.375588 1.137524
1311875815.762701 0.502905 9.375588 1.137524
1311875815.765837 0.407114 9.375588 1.137524
1311875815.766962 0.407114 9.375588 1.137524
1311875815.770474 0.419088 9.184006 1.137524
1311875815.771461 0.419088 9.184006 1.137524
1311875815.772713 0.419088 9.184006 1.137524
1311875815.773726 0.419088 9.184006 1.137524
1311875815.776843 0.407114 9.279797 1.329106
1311875815.777822 0.407114 9.279797 1.329106
1311875815.781513 0.371192 9.375588 1.472794
1311875815.782478 0.371192 9.375588 1.472794
1311875815.785754 0.407114 9.471380 1.472794
1311875815.786706 0.407114 9.471380 1.472794
1311875815.788340 0.407114 9.471380 1.472794
1311875815.790839 0.407114 9.471380 1.329106
1311875815.791819 0.407114 9.471380 1.329106
1311875815.795463 0.407114 9.662963 0.945941
1311875815.796456 0.407114 9.662963 0.945941
1311875815.797727 0.407114 9.662963 0.945941
1311875815.798728 0.407114 9.662963 0.945941
1311875815.802352 0.371192 9.567171 0.754358
1311875815.803447 0.371192 9.567171 0.754358
1311875815.806653 0.407114 9.662963 0.754358
1311875815.807589 0.407114 9.662963 0.754358
1311875815.810955 0.227505 9.471380 0.730410
1311875815.811929 0.227505 9.471380 0.730410
1311875815.812873 0.227505 9.471380 0.730410
1311875815.816482 0.407114 9.471380 0.562775
1311875815.817470 0.407114 9.471380 0.562775
1311875815.820727 0.407114 9.471380 0.562775
1311875815.821726 0.407114 9.471380 0.562775
1311875815.823321 0.407114 9.471380 0.562775
1311875815.826479 0.407114 9.471380 0.466983
1311875815.827603 0.407114 9.471380 0.466983
1311875815.830729 0.395140 9.471380 0.371192
1311875815.831703 0.395140 9.471380 0.371192
1311875815.835350 0.407114 9.279797 0.658566
1311875815.836343 0.407114 9.279797 0.658566
1311875815.837569 0.407114 9.279797 0.658566
1311875815.838574 0.407114 9.279797 0.658566
1311875815.841722 0.407114 9.064266 0.754358
1311875815.842716 0.407114 9.064266 0.754358
1311875815.846346 0.407114 9.088214 0.754358
1311875815.847478 0.407114 9.088214 0.754358
1311875815.848489 0.407114 9.088214 0.754358
1311875815.851722 0.407114 9.088214 0.850149
1311875815.852726 0.407114 9.088214 0.850149
1311875815.856358 0.227505 9.088214 0.754358
1311875815.857328 0.227505 9.088214 0.754358
1311875815.858326 0.227505 9.088214 0.754358
1311875815.861582 0.227505 9.100188 0.766332
1311875815.862703 0.227505 9.100188 0.766332
1311875815.865816 0.323296 9.279797 0.850149
1311875815.866996 0.323296 9.279797 0.850149
1311875815.870457 0.407114 9.279797 0.850149
1311875815.871460 0.407114 9.279797 0.850149
1311875815.872698 0.407114 9.279797 0.850149
1311875815.873720 0.407114 9.279797 0.850149
1311875815.876844 0.323296 9.471380 0.754358
1311875815.877820 0.323296 9.471380 0.754358
1311875815.881485 0.407114 9.471380 0.658566
1311875815.882480 0.407114 9.471380 0.658566
1311875815.885601 0.407114 9.471380 0.562775
1311875815.886740 0.407114 9.471380 0.562775
1311875815.888350 0.407114 9.471380 0.562775
1311875815.891483 0.371192 9.519276 0.658566
1311875815.892500 0.371192 9.519276 0.658566
1311875815.895710 0.407114 9.471380 0.562775
1311875815.896710 0.407114 9.471380 0.562775
1311875815.898338 0.407114 9.471380 0.562775
1311875815.901466 0.407114 9.279797 0.371192
1311875815.902462 0.407114 9.279797 0.371192
1311875815.905718 0.419088 9.279797 0.466983
1311875815.906727 0.419088 9.279797 0.466983
1311875815.909971 0.502905 9.423484 0.658566
1311875815.911012 0.502905 9.423484 0.658566
1311875815.912614 0.502905 9.423484 0.658566
1311875815.913614 0.502905 9.423484 0.658566
1311875815.916869 0.419088 9.471380 0.754358
1311875815.917877 0.419088 9.471380 0.754358
1311875815.921498 0.598697 9.184006 0.562775
1311875815.922467 0.598697 9.184006 0.562775
1311875815.925575 0.598697 9.375588 0.562775
1311875815.926688 0.598697 9.375588 0.562775
1311875815.928360 0.598697 9.375588 0.562775
1311875815.931517 0.598697 9.279797 0.562775
1311875815.932474 0.598697 9.279797 0.562775
1311875815.935569 0.706462 9.136110 0.562775
1311875815.936581 0.706462 9.136110 0.562775
1311875815.937838 0.706462 9.136110 0.562775
1311875815.938853 0.706462 9.136110 0.562775
1311875815.942483 0.706462 9.279797 0.754358
1311875815.943444 0.706462 9.279797 0.754358
1311875815.946733 0.598697 9.279797 0.658566
1311875815.947737 0.598697 9.279797 0.658566
1311875815.951016 0.706462 9.136110 0.754358
1311875815.952340 0.706462 9.136110 0.754358
1311875815.955582 0.706462 9.136110 0.754358
1311875815.956593 0.706462 9.136110 0.754358
1311875815.957837 0.706462 9.136110 0.754358
1311875815.958833 0.706462 9.136110 0.754358
1311875815.962473 0.706462 9.088214 0.562775
1311875815.963447 0.706462 9.088214 0.562775
1311875815.966705 0.790279 8.896631 0.466983
1311875815.967720 0.790279 8.896631 0.466983
1311875815.970884 0.802253 8.896631 0.419088
1311875815.972337 0.802253 8.896631 0.419088
1311875815.975587 0.790279 8.896631 0.371192
1311875815.976599 0.790279 8.896631 0.371192
1311875815.977858 0.790279 8.896631 0.371192
1311875815.978812 0.790279 8.896631 0.371192
1311875815.982514 0.598697 8.896631 0.371192
1311875815.983461 0.598697 8.896631 0.371192
1311875815.986745 0.706462 8.896631 0.179609
1311875815.987706 0.706462 8.896631 0.179609
1311875815.991371 0.778306 9.064266 0.466983
1311875815.992347 0.778306 9.064266 0.466983
1311875815.995681 0.778306 8.896631 0.562775
1311875815.996595 0.778306 8.896631 0.562775
1311875815.997841 0.778306 8.896631 0.562775
1311875815.998840 0.778306 8.896631 0.562775
1311875816.002478 0.802253 8.992423 0.395140
1311875816.003596 0.802253 8.992423 0.395140
1311875816.006708 0.790279 8.992423 0.371192
1311875816.007819 0.790279 8.992423 0.371192
1311875816.011334 0.706462 9.088214 0.371192
1311875816.012463 0.706462 9.088214 0.371192
1311875816.015728 0.802253 8.896631 0.371192
1311875816.016788 0.802253 8.896631 0.371192
1311875816.017833 0.802253 8.896631 0.371192
1311875816.019228 0.802253 8.896631 0.371192
1311875816.022469 0.802253 8.896631 0.275400
1311875816.023588 0.802253 8.896631 0.275400
1311875816.026735 0.802253 8.896631 0.371192
1311875816.027842 0.802253 8.896631 0.371192
1311875816.031345 0.802253 8.896631 0.275400
1311875816.032475 0.802253 8.896631 0.275400
1311875816.035625 0.802253 8.800840 0.275400
1311875816.036600 0.802253 8.800840 0.275400
1311875816.037847 0.802253 8.800840 0.275400
1311875816.038857 0.802253 8.800840 0.275400
1311875816.042476 0.778306 8.705048 0.275400
1311875816.043442 0.778306 8.705048 0.275400
1311875816.046728 0.754358 8.896631 0.179609
1311875816.047716 0.754358 8.896631 0.179609
1311875816.051025 0.802253 8.992423 0.179609
1311875816.052925 0.802253 8.992423 0.179609
1311875816.055501 0.706462 8.992423 0.179609
1311875816.056586 0.706462 8.992423 0.179609
1311875816.057697 0.706462 8.992423 0.179609
1311875816.058839 0.706462 8.992423 0.179609
1311875816.062345 0.598697 9.184006 0.035922
1311875816.065472 0.706462 9.088214 -0.107765
1311875816.066475 0.706462 9.088214 -0.107765
1311875816.067697 0.706462 9.088214 -0.107765
1311875816.068722 0.706462 9.088214 -0.107765
1311875816.071849 0.598697 9.088214 -0.395140
1311875816.072847 0.598697 9.088214 -0.395140
1311875816.076463 0.598697 9.088214 -0.395140
1311875816.077435 0.598697 9.088214 -0.395140
1311875816.080738 0.706462 9.184006 -0.395140
1311875816.081753 0.706462 9.184006 -0.395140
1311875816.085356 0.598697 9.112162 -0.682514
1311875816.086330 0.598697 9.112162 -0.682514
1311875816.087758 0.598697 9.112162 -0.682514
1311875816.088739 0.598697 9.112162 -0.682514
1311875816.091823 0.598697 9.184006 -0.730410
1311875816.092844 0.598697 9.184006 -0.730410
1311875816.096339 0.598697 9.279797 -0.778306
1311875816.097472 0.598697 9.279797 -0.778306
1311875816.100602 0.455009 9.279797 -0.778306
1311875816.101590 0.455009 9.279797 -0.778306
1311875816.102842 0.455009 9.279797 -0.778306
1311875816.103971 0.455009 9.279797 -0.778306
1311875816.107480 0.455009 9.279797 -0.778306
1311875816.108446 0.455009 9.279797 -0.778306
1311875816.111717 0.502905 9.184006 -0.874097
1311875816.112714 0.502905 9.184006 -0.874097
1311875816.116378 0.419088 9.279797 -1.065680
1311875816.118120 0.419088 9.279797 -1.065680
1311875816.122109 0.419088 9.279797 -1.113576
1311875816.123331 0.419088 9.279797 -1.113576
1311875816.126338 0.407114 9.375588 -1.149497
1311875816.127441 0.407114 9.375588 -1.149497
1311875816.130714 0.407114 9.184006 -1.353054
1311875816.131700 0.407114 9.184006 -1.353054
1311875816.135321 0.455009 9.279797 -1.353054
1311875816.136336 0.455009 9.279797 -1.353054
1311875816.137652 0.455009 9.279797 -1.353054
1311875816.138593 0.455009 9.279797 -1.353054
1311875816.141716 0.407114 9.423484 -1.353054
1311875816.142694 0.407114 9.423484 -1.353054
1311875816.146338 0.407114 9.279797 -1.185419
1311875816.147484 0.407114 9.279797 -1.185419
1311875816.150613 0.395140 9.279797 -1.161471
1311875816.151634 0.395140 9.279797 -1.161471
1311875816.152854 0.395140 9.279797 -1.161471
1311875816.154114 0.395140 9.279797 -1.161471
1311875816.157440 0.407114 9.279797 -1.161471
1311875816.158439 0.407114 9.279797 -1.161471
1311875816.161725 0.407114 9.279797 -1.161471
1311875816.162723 0.407114 9.279797 -1.161471
1311875816.165843 0.455009 9.279797 -1.185419
1311875816.166973 0.455009 9.279797 -1.185419
1311875816.170472 0.371192 9.279797 -0.969888
1311875816.171570 0.371192 9.279797 -0.969888
1311875816.172826 0.371192 9.279797 -0.969888
1311875816.173847 0.371192 9.279797 -0.969888
1311875816.177350 0.395140 9.279797 -1.149497
1311875816.178528 0.395140 9.279797 -1.149497
1311875816.181754 0.371192 9.279797 -1.161471
1311875816.182703 0.371192 9.279797 -1.161471
1311875816.185884 0.407114 9.279797 -1.161471
1311875816.186975 0.407114 9.279797 -1.161471
1311875816.190469 0.371192 9.423484 -1.161471
1311875816.191596 0.371192 9.423484 -1.161471
1311875816.192833 0.371192 9.423484 -1.161471
1311875816.193844 0.371192 9.423484 -1.161471
1311875816.197312 0.407114 9.471380 -1.209367
1311875816.198334 0.407114 9.471380 -1.209367
1311875816.201596 0.407114 9.495328 -1.161471
1311875816.202593 0.407114 9.495328 -1.161471
1311875816.205713 0.371192 9.662963 -1.185419
1311875816.206693 0.371192 9.662963 -1.185419
1311875816.209976 0.371192 9.758754 -1.209367
1311875816.210991 0.371192 9.758754 -1.209367
1311875816.212473 0.371192 9.758754 -1.209367
1311875816.213579 0.371192 9.758754 -1.209367
1311875816.216857 0.323296 9.854546 -1.353054
1311875816.217830 0.323296 9.854546 -1.353054
1311875816.221339 0.323296 9.854546 -1.353054
1311875816.222475 0.323296 9.854546 -1.353054
1311875816.225608 0.119739 9.854546 -1.353054
1311875816.226590 0.119739 9.854546 -1.353054
1311875816.227812 0.119739 9.854546 -1.353054
1311875816.229010 0.119739 9.854546 -1.353054
1311875816.232470 0.227505 9.854546 -1.209367
1311875816.233486 0.227505 9.854546 -1.209367
1311875816.236711 0.227505 9.662963 -1.353054
1311875816.237713 0.227505 9.662963 -1.353054
1311875816.241347 0.395140 9.662963 -1.353054
1311875816.242317 0.395140 9.662963 -1.353054
1311875816.245575 0.407114 9.483354 -1.353054
1311875816.246594 0.407114 9.483354 -1.353054
1311875816.247825 0.407114 9.483354 -1.353054
1311875816.248845 0.407114 9.483354 -1.353054
1311875816.252471 0.407114 9.471380 -1.353054
1311875816.254574 0.407114 9.471380 -1.353054
1311875816.256719 0.407114 9.471380 -1.353054
1311875816.257705 0.407114 9.471380 -1.353054
1311875816.260762 0.407114 9.471380 -1.161471
1311875816.261704 0.407114 9.471380 -1.161471
1311875816.265363 0.407114 9.471380 -1.353054
1311875816.266332 0.407114 9.471380 -1.353054
1311875816.267709 0.407114 9.471380 -1.353054
1311875816.268685 0.407114 9.471380 -1.353054
1311875816.271844 0.431062 9.423484 -1.209367
1311875816.272842 0.431062 9.423484 -1.209367
1311875816.276463 0.598697 9.375588 -1.257263
1311875816.277439 0.598697 9.375588 -1.257263
1311875816.280597 0.502905 9.279797 -1.161471
1311875816.281582 0.502905 9.279797 -1.161471
1311875816.282854 0.502905 9.279797 -1.161471
1311875816.284083 0.502905 9.279797 -1.161471
1311875816.287652 0.598697 9.279797 -1.496741
1311875816.288585 0.598697 9.279797 -1.496741
1311875816.291857 0.598697 9.279797 -1.209367
1311875816.292845 0.598697 9.279797 -1.209367
1311875816.296474 0.598697 9.375588 -1.353054
1311875816.297454 0.598697 9.375588 -1.353054
1311875816.300714 0.502905 9.375588 -1.448846
1311875816.301694 0.502905 9.375588 -1.448846
1311875816.305319 0.455009 9.471380 -1.448846
1311875816.306301 0.455009 9.471380 -1.448846
1311875816.307468 0.455009 9.471380 -1.448846
1311875816.310713 0.455009 9.567171 -1.448846
1311875816.311714 0.455009 9.567171 -1.448846
1311875816.313335 0.455009 9.567171 -1.448846
1311875816.315850 0.407114 9.567171 -1.592533
1311875816.317002 0.407114 9.567171 -1.592533
1311875816.320496 0.455009 9.662963 -1.544637
1311875816.321449 0.455009 9.662963 -1.544637
1311875816.322742 0.455009 9.662963 -1.544637
1311875816.323844 0.455009 9.662963 -1.544637
1311875816.326701 0.431062 9.806650 -1.544637
1311875816.327843 0.431062 9.806650 -1.544637
1311875816.331333 0.502905 9.854546 -1.496741
1311875816.332347 0.502905 9.854546 -1.496741
1311875816.335598 0.502905 9.854546 -1.496741
1311875816.336573 0.502905 9.854546 -1.496741
1311875816.337818 0.502905 9.854546 -1.496741
1311875816.338820 0.502905 9.854546 -1.496741
1311875816.342452 0.598697 9.854546 -1.544637
1311875816.343447 0.598697 9.854546 -1.544637
1311875816.346708 0.598697 9.758754 -1.640429
1311875816.347696 0.598697 9.758754 -1.640429
1311875816.351333 0.706462 9.662963 -1.544637
1311875816.352508 0.706462 9.662963 -1.544637
1311875816.353447 0.706462 9.662963 -1.544637
1311875816.356761 0.502905 9.662963 -1.736220
1311875816.357692 0.502905 9.662963 -1.736220
1311875816.361352 0.502905 9.471380 -1.640429
1311875816.362331 0.502905 9.471380 -1.640429
1311875816.365590 0.455009 9.662963 -1.736220
1311875816.366594 0.455009 9.662963 -1.736220
1311875816.367814 0.455009 9.662963 -1.736220
1311875816.368823 0.455009 9.662963 -1.736220
1311875816.372469 0.455009 9.519276 -1.927803
1311875816.373436 0.455009 9.519276 -1.927803
1311875816.376716 0.502905 9.471380 -1.927803
1311875816.377701 0.502905 9.471380 -1.927803
1311875816.381351 0.502905 9.459406 -1.927803
1311875816.382361 0.502905 9.459406 -1.927803
1311875816.383359 0.502905 9.459406 -1.927803
1311875816.386768 0.502905 9.471380 -2.023594
1311875816.387716 0.502905 9.471380 -2.023594
1311875816.391366 0.502905 9.471380 -1.939777
1311875816.392339 0.502905 9.471380 -1.939777
1311875816.395592 0.502905 9.483354 -1.939777
1311875816.396594 0.502905 9.483354 -1.939777
1311875816.397841 0.502905 9.483354 -1.939777
1311875816.398825 0.502905 9.483354 -1.939777
1311875816.402452 0.706462 9.471380 -2.119386
1311875816.403779 0.706462 9.471380 -2.119386
1311875816.406687 0.598697 9.471380 -2.023594
1311875816.407696 0.598697 9.471380 -2.023594
1311875816.411450 0.407114 9.519276 -2.023594
1311875816.412478 0.407114 9.519276 -2.023594
1311875816.413455 0.407114 9.519276 -2.023594
1311875816.416730 0.455009 9.471380 -2.310969
1311875816.417746 0.455009 9.471380 -2.310969
1311875816.421332 0.598697 9.471380 -2.263073
1311875816.422343 0.598697 9.471380 -2.263073
1311875816.425572 0.502905 9.471380 -2.119386
1311875816.426567 0.502905 9.471380 -2.119386
1311875816.427837 0.502905 9.471380 -2.119386
1311875816.428823 0.502905 9.471380 -2.119386
1311875816.432468 0.598697 9.495328 -2.263073
1311875816.433462 0.598697 9.495328 -2.263073
1311875816.436695 0.598697 9.471380 -1.975699
1311875816.437685 0.598697 9.471380 -1.975699
1311875816.441319 0.502905 9.495328 -2.263073
1311875816.442327 0.502905 9.495328 -2.263073
1311875816.445570 0.431062 9.471380 -2.310969
1311875816.446571 0.431062 9.471380 -2.310969
1311875816.447832 0.431062 9.471380 -2.310969
1311875816.448951 0.431062 9.471380 -2.310969
1311875816.452484 0.419088 9.567171 -2.310969
1311875816.453468 0.419088 9.567171 -2.310969
1311875816.458000 0.455009 9.662963 -2.119386
1311875816.460365 0.407114 9.519276 -2.215177
1311875816.461327 0.407114 9.519276 -2.215177
1311875816.462578 0.407114 9.519276 -2.215177
1311875816.463693 0.407114 9.519276 -2.215177
1311875816.466728 0.407114 9.662963 -2.119386
1311875816.467804 0.407114 9.662963 -2.119386
1311875816.471314 0.419088 9.471380 -2.023594
1311875816.472437 0.419088 9.471380 -2.023594
1311875816.475693 0.502905 9.471380 -2.310969
1311875816.476769 0.502905 9.471380 -2.310969
1311875816.477974 0.502905 9.471380 -2.310969
1311875816.478995 0.502905 9.471380 -2.310969
1311875816.482615 0.419088 9.495328 -2.215177
1311875816.483594 0.419088 9.495328 -2.215177
1311875816.486738 0.407114 9.471380 -2.263073
1311875816.487809 0.407114 9.471380 -2.263073
1311875816.491368 0.407114 9.483354 -2.119386
1311875816.492465 0.407114 9.483354 -2.119386
1311875816.495596 0.407114 9.471380 -2.310969
1311875816.496672 0.407114 9.471380 -2.310969
1311875816.497837 0.407114 9.471380 -2.310969
1311875816.498922 0.407114 9.471380 -2.310969
1311875816.502444 0.323296 9.471380 -2.119386
1311875816.503591 0.323296 9.471380 -2.119386
1311875816.508219 0.227505 9.471380 -2.215177
1311875816.509998 0.407114 9.471380 -2.310969
1311875816.511325 0.407114 9.471380 -2.310969
1311875816.512589 0.407114 9.471380 -2.310969
1311875816.515717 0.227505 9.519276 -2.119386
1311875816.516694 0.227505 9.519276 -2.119386
1311875816.520355 0.227505 9.471380 -2.310969
1311875816.521304 0.227505 9.471380 -2.310969
1311875816.522559 0.227505 9.471380 -2.310969
1311875816.523611 0.227505 9.471380 -2.310969
1311875816.526833 0.395140 9.519276 -1.975699
1311875816.527854 0.395140 9.519276 -1.975699
1311875816.531483 0.227505 9.519276 -1.975699
1311875816.532600 0.227505 9.519276 -1.975699
1311875816.535694 0.227505 9.471380 -2.119386
1311875816.536673 0.227505 9.471380 -2.119386
1311875816.540322 0.323296 9.447432 -2.023594
1311875816.541430 0.323296 9.447432 -2.023594
1311875816.542452 0.323296 9.447432 -2.023594
1311875816.545722 0.323296 9.279797 -1.927803
1311875816.548310 0.323296 9.279797 -1.927803
1311875816.549813 0.227505 9.279797 -1.927803
1311875816.550943 0.227505 9.279797 -1.927803
1311875816.552641 0.227505 9.279797 -1.927803
1311875816.553559 0.227505 9.279797 -1.927803
1311875816.556891 0.227505 9.112162 -1.975699
1311875816.557891 0.227505 9.112162 -1.975699
1311875816.561478 0.323296 9.136110 -2.119386
1311875816.562466 0.323296 9.136110 -2.119386
1311875816.565712 0.119739 9.279797 -2.287021
1311875816.566713 0.119739 9.279797 -2.287021
1311875816.570446 0.119739 9.375588 -2.310969
1311875816.571361 0.119739 9.375588 -2.310969
1311875816.572841 0.119739 9.375588 -2.310969
1311875816.575687 0.047896 9.471380 -2.502552
1311875816.576678 0.047896 9.471380 -2.502552
1311875816.580364 0.023948 9.662963 -2.310969
1311875816.582084 0.023948 9.662963 -2.310969
1311875816.583347 0.023948 9.662963 -2.310969
1311875816.586462 0.023948 9.854546 -2.310969
1311875816.587482 0.023948 9.854546 -2.310969
1311875816.590565 0.119739 9.758754 -2.310969
1311875816.591697 0.119739 9.758754 -2.310969
1311875816.593347 0.119739 9.758754 -2.310969
1311875816.596459 -0.011974 9.854546 -2.310969
1311875816.597468 -0.011974 9.854546 -2.310969
1311875816.600716 0.023948 9.758754 -2.263073
1311875816.601705 0.023948 9.758754 -2.263073
1311875816.602812 0.023948 9.758754 -2.263073
1311875816.608849 0.023948 9.758754 -2.263073
1311875816.610347 -0.011974 9.806650 -2.263073
1311875816.611616 -0.011974 9.806650 -2.263073
1311875816.612610 -0.011974 9.806650 -2.263073
1311875816.613616 -0.011974 9.806650 -2.263073
1311875816.616891 0.023948 9.662963 -2.263073
1311875816.617826 0.023948 9.662963 -2.263073
1311875816.621483 0.023948 9.662963 -1.927803
1311875816.622514 0.023948 9.662963 -1.927803
1311875816.625694 0.023948 9.471380 -2.023594
1311875816.626710 0.023948 9.471380 -2.023594
1311875816.630357 0.023948 9.423484 -1.927803
1311875816.631324 0.023948 9.423484 -1.927803
1311875816.632439 0.023948 9.423484 -1.927803
1311875816.635695 0.119739 9.279797 -2.023594
1311875816.636702 0.119739 9.279797 -2.023594
1311875816.640332 0.023948 9.279797 -1.927803
1311875816.641299 0.023948 9.279797 -1.927803
1311875816.642569 0.023948 9.279797 -1.927803
1311875816.643578 0.023948 9.279797 -1.927803
1311875816.646713 0.227505 9.279797 -1.832012
1311875816.647821 0.227505 9.279797 -1.832012
1311875816.651327 0.227505 9.279797 -1.832012
1311875816.652366 0.227505 9.279797 -1.832012
1311875816.655572 0.119739 9.088214 -1.927803
1311875816.656710 0.119739 9.088214 -1.927803
1311875816.657818 0.119739 9.088214 -1.927803
1311875816.659002 0.119739 9.088214 -1.927803
1311875816.662523 0.227505 9.088214 -1.927803
1311875816.663591 0.227505 9.088214 -1.927803
1311875816.666711 0.119739 9.088214 -2.263073
1311875816.667801 0.119739 9.088214 -2.263073
1311875816.671437 0.119739 9.136110 -2.119386
1311875816.674334 0.119739 9.136110 -2.119386
1311875816.675682 0.071844 9.279797 -2.215177
1311875816.676686 0.071844 9.279797 -2.215177
1311875816.680458 0.119739 9.423484 -2.263073
1311875816.681477 0.119739 9.423484 -2.263073
1311875816.682443 0.119739 9.423484 -2.263073
1311875816.685690 0.227505 9.279797 -2.263073
1311875816.686686 0.227505 9.279797 -2.263073
1311875816.689934 0.047896 9.279797 -2.287021
1311875816.691000 0.047896 9.279797 -2.287021
1311875816.692574 0.047896 9.279797 -2.287021
1311875816.693597 0.047896 9.279797 -2.287021
1311875816.696838 0.227505 9.375588 -2.310969
1311875816.697906 0.227505 9.375588 -2.310969
1311875816.701329 0.119739 9.483354 -2.310969
1311875816.702331 0.119739 9.483354 -2.310969
1311875816.705574 0.119739 9.471380 -2.310969
1311875816.706560 0.119739 9.471380 -2.310969
1311875816.707803 0.119739 9.471380 -2.310969
1311875816.708808 0.119739 9.471380 -2.310969
1311875816.712456 0.071844 9.495328 -2.310969
1311875816.713427 0.071844 9.495328 -2.310969
1311875816.716727 0.047896 9.471380 -2.310969
1311875816.717718 0.047896 9.471380 -2.310969
1311875816.721329 0.119739 9.471380 -2.310969
1311875816.722319 0.119739 9.471380 -2.310969
1311875816.723429 0.119739 9.471380 -2.310969
1311875816.726726 0.119739 9.471380 -2.215177
1311875816.727679 0.119739 9.471380 -2.215177
1311875816.731304 0.023948 9.471380 -2.263073
1311875816.732421 0.023948 9.471380 -2.263073
1311875816.735598 0.023948 9.471380 -2.119386
1311875816.736572 0.023948 9.471380 -2.119386
1311875816.737792 0.023948 9.471380 -2.119386
1311875816.738824 0.023948 9.471380 -2.119386
1311875816.742455 0.119739 9.423484 -2.310969
1311875816.743568 0.119739 9.423484 -2.310969
1311875816.746720 0.023948 9.471380 -2.310969
1311875816.747720 0.023948 9.471380 -2.310969
1311875816.751045 0.023948 9.471380 -2.310969
1311875816.752337 0.023948 9.471380 -2.310969
1311875816.755559 0.047896 9.495328 -2.310969
1311875816.756550 0.047896 9.495328 -2.310969
1311875816.757806 0.047896 9.495328 -2.310969
1311875816.758837 0.047896 9.495328 -2.310969
1311875816.762321 0.047896 9.662963 -2.310969
1311875816.763465 0.047896 9.662963 -2.310969
1311875816.766572 0.119739 9.519276 -2.310969
1311875816.767726 0.119739 9.519276 -2.310969
1311875816.770823 0.035922 9.662963 -2.358865
1311875816.772325 0.035922 9.662963 -2.358865
1311875816.775581 0.395140 9.471380 -2.406760
1311875816.776649 0.395140 9.471380 -2.406760
1311875816.777870 0.395140 9.471380 -2.406760
1311875816.778847 0.395140 9.471380 -2.406760
1311875816.782463 0.227505 9.471380 -2.502552
1311875816.783446 0.227505 9.471380 -2.502552
1311875816.786704 0.227505 9.483354 -2.310969
1311875816.787708 0.227505 9.483354 -2.310969
1311875816.790998 0.323296 9.471380 -2.334917
1311875816.792336 0.323296 9.471380 -2.334917
1311875816.795586 0.071844 9.471380 -2.502552
1311875816.796606 0.071844 9.471380 -2.502552
1311875816.797831 0.071844 9.471380 -2.502552
1311875816.798833 0.071844 9.471380 -2.502552
1311875816.802340 0.227505 9.279797 -2.322943
1311875816.803454 0.227505 9.279797 -2.322943
1311875816.806706 0.227505 9.136110 -2.502552
1311875816.807701 0.227505 9.136110 -2.502552
1311875816.811321 0.227505 9.088214 -2.502552
1311875816.812348 0.227505 9.088214 -2.502552
1311875816.815577 0.323296 9.088214 -2.502552
1311875816.816577 0.323296 9.088214 -2.502552
1311875816.817834 0.323296 9.088214 -2.502552
1311875816.818827 0.323296 9.088214 -2.502552
1311875816.822448 0.395140 9.088214 -2.310969
1311875816.823425 0.395140 9.088214 -2.310969
1311875816.826777 0.323296 9.184006 -2.310969
1311875816.827698 0.323296 9.184006 -2.310969
1311875816.830986 0.407114 9.100188 -2.215177
1311875816.832334 0.407114 9.100188 -2.215177
1311875816.835600 0.431062 9.184006 -1.975699
1311875816.836573 0.431062 9.184006 -1.975699
1311875816.837819 0.431062 9.184006 -1.975699
1311875816.838822 0.431062 9.184006 -1.975699
1311875816.842442 0.407114 9.279797 -1.927803
1311875816.843464 0.407114 9.279797 -1.927803
1311875816.846712 0.419088 9.279797 -1.927803
1311875816.847681 0.419088 9.279797 -1.927803
1311875816.851310 0.407114 9.184006 -1.592533
1311875816.852414 0.407114 9.184006 -1.592533
1311875816.855597 0.407114 9.184006 -1.927803
1311875816.856725 0.407114 9.184006 -1.927803
1311875816.857841 0.407114 9.184006 -1.927803
1311875816.858918 0.407114 9.184006 -1.927803
1311875816.862460 0.395140 9.279797 -1.927803
1311875816.863586 0.395140 9.279797 -1.927803
1311875816.866706 0.407114 9.279797 -1.927803
1311875816.867795 0.407114 9.279797 -1.927803
1311875816.871325 0.407114 9.279797 -1.832012
1311875816.872300 0.407114 9.279797 -1.832012
1311875816.875572 0.407114 9.423484 -1.879907
1311875816.876558 0.407114 9.423484 -1.879907
1311875816.877829 0.407114 9.423484 -1.879907
1311875816.878823 0.407114 9.423484 -1.879907
1311875816.882517 0.407114 9.471380 -1.927803
1311875816.883916 0.407114 9.471380 -1.927803
1311875816.886710 0.407114 9.471380 -1.927803
1311875816.887806 0.407114 9.471380 -1.927803
1311875816.891312 0.323296 9.471380 -2.023594
1311875816.892332 0.323296 9.471380 -2.023594
1311875816.895579 0.323296 9.471380 -1.939777
1311875816.896705 0.323296 9.471380 -1.939777
1311875816.897825 0.323296 9.471380 -1.939777
1311875816.898809 0.323296 9.471380 -1.939777
1311875816.902449 0.323296 9.471380 -1.975699
1311875816.904037 0.323296 9.471380 -1.975699
1311875816.906704 0.227505 9.483354 -1.736220
1311875816.907696 0.227505 9.483354 -1.736220
1311875816.911325 0.407114 9.495328 -1.927803
1311875816.912493 0.407114 9.495328 -1.927803
1311875816.915597 0.227505 9.495328 -1.879907
1311875816.916605 0.227505 9.495328 -1.879907
1311875816.917808 0.227505 9.495328 -1.879907
1311875816.919067 0.227505 9.495328 -1.879907
1311875816.922435 0.323296 9.471380 -1.736220
1311875816.923544 0.323296 9.471380 -1.736220
1311875816.926713 0.323296 9.471380 -1.736220
1311875816.927830 0.323296 9.471380 -1.736220
1311875816.931329 0.227505 9.471380 -1.736220
1311875816.932333 0.227505 9.471380 -1.736220
1311875816.935576 0.407114 9.375588 -1.927803
1311875816.937127 0.407114 9.375588 -1.927803
1311875816.940176 0.119739 9.471380 -1.927803
1311875816.941415 0.119739 9.471380 -1.927803
1311875816.942429 0.119739 9.471380 -1.927803
1311875816.945714 0.119739 9.423484 -1.736220
1311875816.947505 0.119739 9.423484 -1.736220
1311875816.950332 0.023948 9.519276 -1.927803
1311875816.951455 0.023948 9.519276 -1.927803
1311875816.952518 0.023948 9.519276 -1.927803
1311875816.955877 0.023948 9.519276 -1.879907
1311875816.956854 0.023948 9.519276 -1.879907
1311875816.957824 0.023948 9.519276 -1.879907
1311875816.961452 0.119739 9.662963 -1.927803
1311875816.962445 0.119739 9.662963 -1.927803
1311875816.965616 0.227505 9.567171 -1.927803
1311875816.966703 0.227505 9.567171 -1.927803
1311875816.968200 0.227505 9.567171 -1.927803
1311875816.969289 0.227505 9.567171 -1.927803
1311875816.972571 0.071844 9.662963 -1.879907
1311875816.973545 0.071844 9.662963 -1.879907
1311875816.976831 0.023948 9.567171 -1.975699
1311875816.977820 0.023948 9.567171 -1.975699
1311875816.981443 0.227505 9.567171 -2.119386
1311875816.982445 0.227505 9.567171 -2.119386
1311875816.985570 0.071844 9.567171 -2.119386
1311875816.986695 0.071844 9.567171 -2.119386
1311875816.988295 0.071844 9.567171 -2.119386
1311875816.991488 0.023948 9.567171 -2.023594
1311875816.992488 0.023948 9.567171 -2.023594
1311875816.995707 0.023948 9.662963 -2.215177
1311875816.996830 0.023948 9.662963 -2.215177
1311875817.000319 0.023948 9.758754 -2.310969
1311875817.001368 0.023948 9.758754 -2.310969
1311875817.002560 0.023948 9.758754 -2.310969
1311875817.003678 0.023948 9.758754 -2.310969
1311875817.006682 0.035922 9.830598 -2.287021
1311875817.007804 0.035922 9.830598 -2.287021
1311875817.011452 0.023948 9.662963 -2.287021
1311875817.012609 0.023948 9.662963 -2.287021
1311875817.015712 0.071844 9.662963 -1.927803
1311875817.016698 0.071844 9.662963 -1.927803
1311875817.017946 0.071844 9.662963 -1.927803
1311875817.018914 0.071844 9.662963 -1.927803
1311875817.022562 0.023948 9.662963 -2.119386
1311875817.023619 0.023948 9.662963 -2.119386
1311875817.026710 0.023948 9.567171 -1.975699
1311875817.027824 0.023948 9.567171 -1.975699
1311875817.031308 -0.011974 9.758754 -2.023594
1311875817.032319 -0.011974 9.758754 -2.023594
1311875817.035605 0.023948 9.662963 -1.927803
1311875817.036580 0.023948 9.662963 -1.927803
1311875817.037829 0.023948 9.662963 -1.927803
1311875817.038792 0.023948 9.662963 -1.927803
1311875817.042442 -0.167635 9.662963 -1.736220
1311875817.043609 -0.167635 9.662963 -1.736220
1311875817.046734 -0.059870 9.662963 -1.736220
1311875817.047798 -0.059870 9.662963 -1.736220
1311875817.051300 0.023948 9.567171 -1.640429
1311875817.052327 0.023948 9.567171 -1.640429
1311875817.055578 0.023948 9.662963 -1.736220
1311875817.056614 0.023948 9.662963 -1.736220
1311875817.057849 0.023948 9.662963 -1.736220
1311875817.058827 0.023948 9.662963 -1.736220
1311875817.062581 -0.011974 9.662963 -1.832012
1311875817.063585 -0.011974 9.662963 -1.832012
1311875817.066708 -0.167635 9.806650 -1.736220
1311875817.067708 -0.167635 9.806650 -1.736220
1311875817.071302 0.023948 9.662963 -1.736220
1311875817.072306 0.023948 9.662963 -1.736220
1311875817.075572 0.023948 9.567171 -1.544637
1311875817.076589 0.023948 9.567171 -1.544637
1311875817.077831 0.023948 9.567171 -1.544637
1311875817.078837 0.023948 9.567171 -1.544637
1311875817.082464 0.023948 9.483354 -1.448846
1311875817.083442 0.023948 9.483354 -1.448846
1311875817.086690 0.023948 9.483354 -1.257263
1311875817.087675 0.023948 9.483354 -1.257263
1311875817.091304 0.023948 9.423484 -1.353054
1311875817.092355 0.023948 9.423484 -1.353054
1311875817.095557 0.023948 9.423484 -1.353054
1311875817.096574 0.023948 9.423484 -1.353054
1311875817.097819 0.023948 9.423484 -1.353054
1311875817.098831 0.023948 9.423484 -1.353054
1311875817.102447 -0.011974 9.423484 -1.257263
1311875817.103425 -0.011974 9.423484 -1.257263
1311875817.106675 0.023948 9.279797 -1.353054
1311875817.107676 0.023948 9.279797 -1.353054
1311875817.110942 0.023948 9.375588 -1.257263
1311875817.112326 0.023948 9.375588 -1.257263
1311875817.115612 0.023948 9.447432 -1.209367
1311875817.116554 0.023948 9.447432 -1.209367
1311875817.117813 0.023948 9.447432 -1.209367
1311875817.118792 0.023948 9.447432 -1.209367
1311875817.122339 0.023948 9.184006 -1.353054
1311875817.123419 0.023948 9.184006 -1.353054
1311875817.126563 0.035922 9.279797 -1.353054
1311875817.127704 0.035922 9.279797 -1.353054
1311875817.130808 -0.059870 9.447432 -1.257263
1311875817.132324 -0.059870 9.447432 -1.257263
1311875817.135583 0.023948 9.471380 -1.161471
1311875817.136574 0.023948 9.471380 -1.161471
1311875817.137828 0.023948 9.471380 -1.161471
1311875817.138824 0.023948 9.471380 -1.161471
1311875817.142435 0.023948 9.471380 -1.257263
1311875817.143440 0.023948 9.471380 -1.257263
1311875817.146724 0.023948 9.471380 -1.161471
1311875817.147707 0.023948 9.471380 -1.161471
1311875817.151318 0.071844 9.471380 -1.353054
1311875817.152329 0.071844 9.471380 -1.353054
1311875817.155573 0.119739 9.471380 -1.353054
1311875817.156584 0.119739 9.471380 -1.353054
1311875817.157824 0.119739 9.471380 -1.353054
1311875817.158828 0.119739 9.471380 -1.353054
1311875817.162451 0.023948 9.471380 -1.544637
1311875817.163450 0.023948 9.471380 -1.544637
1311875817.166699 0.023948 9.471380 -1.353054
1311875817.167667 0.023948 9.471380 -1.353054
1311875817.170931 0.023948 9.471380 -1.353054
1311875817.172316 0.023948 9.471380 -1.353054
1311875817.175579 0.071844 9.495328 -1.209367
1311875817.177091 0.071844 9.495328 -1.209367
1311875817.178309 0.071844 9.495328 -1.209367
1311875817.181472 -0.059870 9.758754 -1.209367
1311875817.182457 -0.059870 9.758754 -1.209367
1311875817.185689 0.023948 9.567171 -1.257263
1311875817.186696 0.023948 9.567171 -1.257263
1311875817.190324 0.023948 9.471380 -1.161471
1311875817.191447 0.023948 9.471380 -1.161471
1311875817.192449 0.023948 9.471380 -1.161471
1311875817.195692 0.047896 9.471380 -1.257263
1311875817.196703 0.047896 9.471380 -1.257263
1311875817.200343 0.023948 9.495328 -1.257263
1311875817.201324 0.023948 9.495328 -1.257263
1311875817.202575 0.023948 9.495328 -1.257263
1311875817.203557 0.023948 9.495328 -1.257263
1311875817.206681 -0.011974 9.662963 -1.257263
1311875817.207806 -0.011974 9.662963 -1.257263
1311875817.211463 0.011974 9.662963 -1.448846
1311875817.212463 0.011974 9.662963 -1.448846
1311875817.215715 0.011974 9.662963 -1.209367
1311875817.216707 0.011974 9.662963 -1.209367
1311875817.220327 0.023948 9.567171 -1.353054
1311875817.221460 0.023948 9.567171 -1.353054
1311875817.222457 0.023948 9.567171 -1.353054
1311875817.225707 0.011974 9.567171 -1.257263
1311875817.226705 0.011974 9.567171 -1.257263
1311875817.229946 0.035922 9.471380 -1.257263
1311875817.230954 0.035922 9.471380 -1.257263
1311875817.232630 0.035922 9.471380 -1.257263
1311875817.233574 0.035922 9.471380 -1.257263
1311875817.236830 0.011974 9.483354 -1.113576
1311875817.237822 0.011974 9.483354 -1.113576
1311875817.241532 -0.011974 9.519276 -0.802253
1311875817.242427 -0.011974 9.519276 -0.802253
1311875817.245740 0.023948 9.567171 -0.874097
1311875817.246735 0.023948 9.567171 -0.874097
1311875817.249856 -0.011974 9.495328 -0.874097
1311875817.250923 -0.011974 9.495328 -0.874097
1311875817.252424 -0.011974 9.495328 -0.874097
1311875817.253532 -0.011974 9.495328 -0.874097
1311875817.256793 -0.167635 9.662963 -0.969888
1311875817.257789 -0.167635 9.662963 -0.969888
1311875817.261310 -0.167635 9.662963 -0.969888
1311875817.262314 -0.167635 9.662963 -0.969888
1311875817.265559 -0.167635 9.471380 -0.778306
1311875817.266578 -0.167635 9.471380 -0.778306
1311875817.267794 -0.167635 9.471380 -0.778306
1311875817.268919 -0.167635 9.471380 -0.778306
1311875817.272451 -0.167635 9.459406 -0.969888
1311875817.273576 -0.167635 9.459406 -0.969888
1311875817.276815 -0.059870 9.519276 -0.778306
1311875817.277802 -0.059870 9.519276 -0.778306
1311875817.281473 -0.167635 9.662963 -0.874097
1311875817.282478 -0.167635 9.662963 -0.874097
1311875817.285672 -0.167635 9.519276 -0.682514
1311875817.286707 -0.167635 9.519276 -0.682514
1311875817.290326 -0.167635 9.519276 -0.395140
1311875817.291448 -0.167635 9.519276 -0.395140
1311875817.292575 -0.167635 9.519276 -0.395140
1311875817.293695 -0.167635 9.519276 -0.395140
1311875817.296824 0.023948 9.471380 -0.395140
1311875817.297823 0.023948 9.471380 -0.395140
1311875817.301457 0.023948 9.471380 -0.443035
1311875817.302435 0.023948 9.471380 -0.443035
1311875817.305684 0.071844 9.375588 -0.443035
1311875817.306710 0.071844 9.375588 -0.443035
1311875817.310336 -0.011974 9.471380 -0.395140
1311875817.311314 -0.011974 9.471380 -0.395140
1311875817.312433 -0.011974 9.471380 -0.395140
1311875817.315674 -0.167635 9.423484 -0.395140
1311875817.316776 -0.167635 9.423484 -0.395140
1311875817.320326 -0.059870 9.279797 -0.395140
1311875817.321323 -0.059870 9.279797 -0.395140
1311875817.322565 -0.059870 9.279797 -0.395140
1311875817.323566 -0.059870 9.279797 -0.395140
1311875817.326752 -0.011974 9.447432 -0.299348
1311875817.327819 -0.011974 9.447432 -0.299348
1311875817.331314 0.011974 9.471380 -0.035922
1311875817.332436 0.011974 9.471380 -0.035922
1311875817.333578 0.011974 9.471380 -0.035922
1311875817.336711 -0.059870 9.423484 -0.107765
1311875817.337691 -0.059870 9.423484 -0.107765
1311875817.341297 0.023948 9.279797 -0.347244
1311875817.342309 0.023948 9.279797 -0.347244
1311875817.345687 0.011974 9.279797 -0.299348
1311875817.347795 0.011974 9.279797 -0.299348
1311875817.350375 -0.167635 9.423484 -0.395140
1311875817.351289 -0.167635 9.423484 -0.395140
1311875817.352458 -0.167635 9.423484 -0.395140
1311875817.355696 -0.059870 9.423484 -0.395140
1311875817.356687 -0.059870 9.423484 -0.395140
1311875817.360324 -0.263426 9.279797 -0.203557
1311875817.361326 -0.263426 9.279797 -0.203557
1311875817.362763 -0.263426 9.279797 -0.203557
1311875817.363612 -0.263426 9.279797 -0.203557
1311875817.366737 -0.167635 9.279797 -0.299348
1311875817.367807 -0.167635 9.279797 -0.299348
1311875817.371320 -0.167635 9.375588 -0.059870
1311875817.372294 -0.167635 9.375588 -0.059870
1311875817.375564 -0.263426 9.471380 -0.203557
1311875817.376555 -0.263426 9.471380 -0.203557
1311875817.377805 -0.263426 9.471380 -0.203557
1311875817.378807 -0.263426 9.471380 -0.203557
1311875817.382982 -0.359218 9.567171 -0.203557
1311875817.385569 -0.347244 9.519276 -0.203557
1311875817.386575 -0.347244 9.519276 -0.203557
1311875817.387824 -0.347244 9.519276 -0.203557
1311875817.388823 -0.347244 9.519276 -0.203557
1311875817.392450 -0.263426 9.662963 -0.107765
1311875817.393446 -0.263426 9.662963 -0.107765
1311875817.396572 -0.263426 9.519276 -0.023948
1311875817.397571 -0.263426 9.519276 -0.023948
1311875817.400699 -0.335270 9.662963 0.011974
1311875817.401669 -0.335270 9.662963 0.011974
1311875817.402791 -0.335270 9.662963 0.011974
1311875817.404296 -0.335270 9.662963 0.011974
1311875817.407474 -0.263426 9.830598 -0.011974
1311875817.408585 -0.263426 9.830598 -0.011974
1311875817.411695 -0.263426 9.662963 -0.107765
1311875817.412840 -0.263426 9.662963 -0.107765
1311875817.416331 -0.263426 9.519276 -0.107765
1311875817.417288 -0.263426 9.519276 -0.107765
1311875817.420559 -0.059870 9.519276 -0.347244
1311875817.421569 -0.059870 9.519276 -0.347244
1311875817.422817 -0.059870 9.519276 -0.347244
1311875817.423918 -0.059870 9.519276 -0.347244
1311875817.427444 -0.011974 9.471380 -0.203557
1311875817.428623 -0.011974 9.471380 -0.203557
1311875817.431693 0.023948 9.471380 -0.203557
1311875817.432695 0.023948 9.471380 -0.203557
1311875817.435938 -0.011974 9.471380 -0.203557
1311875817.436937 -0.011974 9.471380 -0.203557
1311875817.440424 0.023948 9.471380 -0.203557
1311875817.441442 0.023948 9.471380 -0.203557
1311875817.442674 0.023948 9.471380 -0.203557
1311875817.443795 0.023948 9.471380 -0.203557
1311875817.447440 0.023948 9.375588 -0.395140
1311875817.448478 0.023948 9.375588 -0.395140
1311875817.451719 0.119739 9.279797 -0.490931
1311875817.452660 0.119739 9.279797 -0.490931
1311875817.455701 0.119739 9.375588 -0.586723
1311875817.456690 0.119739 9.375588 -0.586723
1311875817.460320 0.023948 9.471380 -0.682514
1311875817.461364 0.023948 9.471380 -0.682514
1311875817.462572 0.023948 9.471380 -0.682514
1311875817.463574 0.023948 9.471380 -0.682514
1311875817.466705 -0.059870 9.519276 -0.778306
1311875817.467824 -0.059870 9.519276 -0.778306
1311875817.471292 0.023948 9.471380 -0.778306
1311875817.472302 0.023948 9.471380 -0.778306
1311875817.475590 0.023948 9.471380 -0.778306
1311875817.476616 0.023948 9.471380 -0.778306
1311875817.477884 0.023948 9.471380 -0.778306
1311875817.478820 0.023948 9.471380 -0.778306
1311875817.482590 -0.011974 9.662963 -0.586723
1311875817.483557 -0.011974 9.662963 -0.586723
1311875817.486692 0.023948 9.662963 -0.395140
1311875817.487691 0.023948 9.662963 -0.395140
1311875817.491313 0.023948 9.471380 -0.586723
1311875817.492322 0.023948 9.471380 -0.586723
1311875817.495592 0.071844 9.471380 -0.395140
1311875817.496694 0.071844 9.471380 -0.395140
1311875817.497820 0.071844 9.471380 -0.395140
1311875817.498997 0.071844 9.471380 -0.395140
1311875817.502458 0.023948 9.471380 -0.395140
1311875817.503546 0.023948 9.471380 -0.395140
1311875817.506670 0.023948 9.447432 -0.371192
1311875817.507796 0.023948 9.447432 -0.371192
1311875817.511439 0.023948 9.471380 -0.203557
1311875817.512484 0.023948 9.471380 -0.203557
1311875817.515564 -0.059870 9.471380 -0.203557
1311875817.516560 -0.059870 9.471380 -0.203557
1311875817.517831 -0.059870 9.471380 -0.203557
1311875817.518821 -0.059870 9.471380 -0.203557
1311875817.522444 0.023948 9.279797 -0.203557
1311875817.523443 0.023948 9.279797 -0.203557
1311875817.526607 -0.059870 9.471380 -0.011974
1311875817.527660 -0.059870 9.471380 -0.011974
1311875817.530707 -0.167635 9.423484 0.179609
1311875817.531704 -0.167635 9.423484 0.179609
1311875817.534829 0.023948 9.184006 0.179609
1311875817.536160 0.023948 9.184006 0.179609
1311875817.537528 0.023948 9.184006 0.179609
1311875817.545242 0.023948 9.184006 0.179609
1311875817.546288 -0.167635 9.279797 0.371192
1311875817.547287 -0.167635 9.279797 0.371192
1311875817.550568 -0.167635 9.279797 0.466983
1311875817.551581 -0.167635 9.279797 0.466983
1311875817.552819 -0.167635 9.279797 0.466983
1311875817.553802 -0.167635 9.279797 0.466983
1311875817.557446 -0.167635 9.375588 0.658566
1311875817.558439 -0.167635 9.375588 0.658566
1311875817.561686 0.023948 9.459406 0.466983
1311875817.562687 0.023948 9.459406 0.466983
1311875817.566320 -0.167635 9.471380 0.658566
1311875817.567316 -0.167635 9.471380 0.658566
1311875817.568314 -0.167635 9.471380 0.658566
1311875817.571675 -0.311322 9.471380 0.754358
1311875817.572664 -0.311322 9.471380 0.754358
1311875817.576305 -0.167635 9.279797 0.562775
1311875817.577312 -0.167635 9.279797 0.562775
1311875817.580588 -0.167635 9.279797 0.466983
1311875817.581559 -0.167635 9.279797 0.466983
1311875817.582809 -0.167635 9.279797 0.466983
1311875817.583814 -0.167635 9.279797 0.466983
1311875817.587469 -0.167635 9.375588 0.562775
1311875817.588412 -0.167635 9.375588 0.562775
1311875817.591693 -0.059870 9.279797 0.706462
1311875817.592703 -0.059870 9.279797 0.706462
1311875817.596312 -0.011974 9.279797 0.562775
1311875817.597289 -0.011974 9.279797 0.562775
1311875817.600573 0.023948 9.136110 0.562775
1311875817.601587 0.023948 9.136110 0.562775
1311875817.602827 0.023948 9.136110 0.562775
1311875817.603786 0.023948 9.136110 0.562775
1311875817.607440 -0.167635 9.423484 0.658566
1311875817.609395 -0.167635 9.423484 0.658566
1311875817.611699 -0.167635 9.279797 0.562775
1311875817.612714 -0.167635 9.279797 0.562775
1311875817.615671 -0.167635 9.279797 0.562775
1311875817.616699 -0.167635 9.279797 0.562775
1311875817.618287 -0.167635 9.279797 0.562775
1311875817.621444 -0.347244 9.423484 0.706462
1311875817.622439 -0.347244 9.423484 0.706462
1311875817.625568 -0.263426 9.279797 0.706462
1311875817.626736 -0.263426 9.279797 0.706462
1311875817.628376 -0.263426 9.279797 0.706462
1311875817.631446 -0.167635 9.184006 0.706462
1311875817.632410 -0.167635 9.184006 0.706462
1311875817.635565 -0.167635 9.447432 0.754358
1311875817.636537 -0.167635 9.447432 0.754358
1311875817.637811 -0.167635 9.447432 0.754358
1311875817.638814 -0.167635 9.447432 0.754358
1311875817.642448 -0.167635 9.471380 0.658566
1311875817.643535 -0.167635 9.471380 0.658566
1311875817.646672 -0.167635 9.471380 0.730410
1311875817.647822 -0.167635 9.471380 0.730410
1311875817.651324 -0.167635 9.279797 0.562775
1311875817.652349 -0.167635 9.279797 0.562775
1311875817.655588 -0.167635 9.088214 0.706462
1311875817.656659 -0.167635 9.088214 0.706462
1311875817.657810 -0.167635 9.088214 0.706462
1311875817.658830 -0.167635 9.088214 0.706462
1311875817.662445 -0.167635 8.896631 0.562775
1311875817.663560 -0.167635 8.896631 0.562775
1311875817.666710 -0.167635 8.992423 0.658566
1311875817.667690 -0.167635 8.992423 0.658566
1311875817.671290 -0.167635 8.896631 0.754358
1311875817.672410 -0.167635 8.896631 0.754358
1311875817.673407 -0.167635 8.896631 0.754358
1311875817.676761 -0.167635 8.896631 0.945941
1311875817.677698 -0.167635 8.896631 0.945941
1311875817.681299 -0.167635 8.728996 0.945941
1311875817.682335 -0.167635 8.728996 0.945941
1311875817.683294 -0.167635 8.728996 0.945941
1311875817.686692 -0.347244 8.800840 1.089628
1311875817.687691 -0.347244 8.800840 1.089628
1311875817.690997 -0.311322 8.896631 0.945941
1311875817.692355 -0.311322 8.896631 0.945941
1311875817.695564 -0.347244 9.088214 1.137524
1311875817.696568 -0.347244 9.088214 1.137524
1311875817.697818 -0.347244 9.088214 1.137524
1311875817.698820 -0.347244 9.088214 1.137524
1311875817.702293 -0.263426 9.088214 1.137524
1311875817.703291 -0.263426 9.088214 1.137524
1311875817.706564 -0.347244 9.184006 1.089628
1311875817.707656 -0.347244 9.184006 1.089628
1311875817.710703 -0.359218 9.375588 0.945941
1311875817.711680 -0.359218 9.375588 0.945941
1311875817.715303 -0.347244 9.459406 0.754358
1311875817.716433 -0.347244 9.459406 0.754358
1311875817.717423 -0.347244 9.459406 0.754358
1311875817.720676 -0.347244 9.471380 0.730410
1311875817.721702 -0.347244 9.471380 0.730410
1311875817.723306 -0.347244 9.471380 0.730410
1311875817.726441 -0.347244 9.519276 0.754358
1311875817.727573 -0.347244 9.519276 0.754358
1311875817.730692 -0.347244 9.519276 0.658566
1311875817.731700 -0.347244 9.519276 0.658566
1311875817.735183 -0.371192 9.662963 0.562775
1311875817.736320 -0.371192 9.662963 0.562775
1311875817.737577 -0.371192 9.662963 0.562775
1311875817.738563 -0.371192 9.662963 0.562775
1311875817.741708 -0.347244 9.567171 0.754358
1311875817.742797 -0.347244 9.567171 0.754358
1311875817.746433 -0.359218 9.519276 0.562775
1311875817.748476 -0.359218 9.519276 0.562775
1311875817.750607 -0.359218 9.471380 0.754358
1311875817.751647 -0.359218 9.471380 0.754358
1311875817.752829 -0.359218 9.471380 0.754358
1311875817.753904 -0.359218 9.471380 0.754358
1311875817.757444 -0.359218 9.375588 0.802253
1311875817.758439 -0.359218 9.375588 0.802253
1311875817.761697 -0.347244 9.184006 1.137524
1311875817.762811 -0.347244 9.184006 1.137524
1311875817.766318 -0.347244 9.279797 1.137524
1311875817.767437 -0.347244 9.279797 1.137524
1311875817.770569 -0.347244 9.100188 1.424898
1311875817.771724 -0.347244 9.100188 1.424898
1311875817.772942 -0.347244 9.100188 1.424898
1311875817.773937 -0.347244 9.100188 1.424898
1311875817.777440 -0.263426 9.088214 1.472794
1311875817.778464 -0.263426 9.088214 1.472794
1311875817.781703 -0.263426 9.088214 1.544637
1311875817.782685 -0.263426 9.088214 1.544637
1311875817.786346 -0.347244 9.088214 1.568585
1311875817.787427 -0.347244 9.088214 1.568585
1311875817.790572 -0.263426 9.088214 1.520689
1311875817.791590 -0.263426 9.088214 1.520689
1311875817.792795 -0.263426 9.088214 1.520689
1311875817.793789 -0.263426 9.088214 1.520689
1311875817.797774 -0.335270 9.088214 1.568585
1311875817.800543 -0.167635 9.184006 1.808064
1311875817.801587 -0.167635 9.184006 1.808064
1311875817.802794 -0.167635 9.184006 1.808064
1311875817.805068 -0.167635 9.184006 1.808064
1311875817.807753 -0.263426 9.279797 1.568585
1311875817.810619 -0.059870 9.279797 1.712272
1311875817.811711 -0.059870 9.279797 1.712272
1311875817.813021 -0.059870 9.279797 1.712272
1311875817.814368 -0.059870 9.279797 1.712272
1311875817.817293 -0.263426 9.279797 1.520689
1311875817.818345 -0.263426 9.279797 1.520689
1311875817.819312 -0.263426 9.279797 1.520689
1311875817.822695 -0.263426 9.279797 1.508715
1311875817.823709 -0.263426 9.279797 1.508715
1311875817.826809 -0.167635 9.279797 1.508715
1311875817.827790 -0.167635 9.279797 1.508715
1311875817.831297 -0.167635 9.279797 1.520689
1311875817.832304 -0.167635 9.279797 1.520689
1311875817.835599 -0.167635 9.279797 1.520689
1311875817.836596 -0.167635 9.279797 1.520689
1311875817.837795 -0.167635 9.279797 1.520689
1311875817.838944 -0.167635 9.279797 1.520689
1311875817.842430 -0.311322 9.471380 1.903855
1311875817.843422 -0.311322 9.471380 1.903855
1311875817.846736 -0.347244 9.423484 1.855959
1311875817.847751 -0.347244 9.423484 1.855959
1311875817.850932 -0.311322 9.423484 1.855959
1311875817.852300 -0.311322 9.423484 1.855959
1311875817.855462 -0.311322 9.279797 1.855959
1311875817.856416 -0.311322 9.279797 1.855959
1311875817.857668 -0.311322 9.279797 1.855959
1311875817.858739 -0.311322 9.279797 1.855959
1311875817.862295 -0.311322 9.375588 2.095438
1311875817.863451 -0.311322 9.375588 2.095438
1311875817.866552 -0.263426 9.471380 2.275047
1311875817.867687 -0.263426 9.471380 2.275047
1311875817.870878 -0.263426 9.471380 2.287021
1311875817.876285 -0.263426 9.471380 2.287021
1311875817.877350 -0.167635 9.459406 2.478604
1311875817.880501 -0.311322 9.471380 2.574395
1311875817.881490 -0.311322 9.471380 2.574395
1311875817.882701 -0.311322 9.471380 2.574395
1311875817.883846 -0.311322 9.471380 2.574395
1311875817.886708 -0.167635 9.447432 2.574395
1311875817.888139 -0.167635 9.447432 2.574395
1311875817.891418 -0.011974 9.471380 2.287021
1311875817.892446 -0.011974 9.471380 2.287021
1311875817.895565 -0.167635 9.447432 2.382812
1311875817.896547 -0.167635 9.447432 2.382812
1311875817.897784 -0.167635 9.447432 2.382812
1311875817.898807 -0.167635 9.447432 2.382812
1311875817.902433 -0.011974 9.279797 2.478604
1311875817.903641 -0.011974 9.279797 2.478604
1311875817.906681 -0.011974 9.184006 2.478604
1311875817.907698 -0.011974 9.184006 2.478604
1311875817.911423 -0.059870 9.088214 2.382812
1311875817.912300 -0.059870 9.088214 2.382812
1311875817.915583 0.023948 9.076240 2.287021
1311875817.916592 0.023948 9.076240 2.287021
1311875817.917816 0.023948 9.076240 2.287021
1311875817.918900 0.023948 9.076240 2.287021
1311875817.922330 -0.167635 9.112162 2.382812
1311875817.923551 -0.167635 9.112162 2.382812
1311875817.926549 -0.167635 9.088214 2.287021
1311875817.927691 -0.167635 9.088214 2.287021
1311875817.930581 -0.263426 9.088214 2.334917
1311875817.931696 -0.263426 9.088214 2.334917
1311875817.933300 -0.263426 9.088214 2.334917
1311875817.936424 -0.263426 9.136110 2.718082
1311875817.937415 -0.263426 9.136110 2.718082
1311875817.940699 -0.167635 9.088214 2.694135
1311875817.941652 -0.167635 9.088214 2.694135
1311875817.948414 -0.167635 9.184006 2.718082
1311875817.949967 -0.167635 9.136110 2.670187
1311875817.951525 -0.167635 9.136110 2.670187
1311875817.952413 -0.167635 9.136110 2.670187
1311875817.955543 -0.347244 9.375588 2.861770
1311875817.956689 -0.347244 9.375588 2.861770
1311875817.957815 -0.347244 9.375588 2.861770
1311875817.958820 -0.347244 9.375588 2.861770
1311875817.962420 -0.311322 9.375588 2.694135
1311875817.963547 -0.311322 9.375588 2.694135
1311875817.966697 -0.347244 9.375588 2.861770
1311875817.967786 -0.347244 9.375588 2.861770
1311875817.971354 -0.263426 9.279797 2.861770
1311875817.972434 -0.263426 9.279797 2.861770
1311875817.975568 -0.167635 9.279797 2.694135
1311875817.976985 -0.167635 9.279797 2.694135
1311875817.978465 -0.167635 9.279797 2.694135
1311875817.981430 -0.167635 9.088214 2.957561
1311875817.982438 -0.167635 9.088214 2.957561
1311875817.985709 -0.059870 9.076240 2.957561
1311875817.986660 -0.059870 9.076240 2.957561
1311875817.990327 -0.059870 8.896631 3.340727
1311875817.991440 -0.059870 8.896631 3.340727
1311875817.992556 -0.059870 8.896631 3.340727
1311875817.993552 -0.059870 8.896631 3.340727
1311875817.996856 0.023948 8.800840 3.101248
1311875817.997799 0.023948 8.800840 3.101248
1311875818.001434 -0.263426 8.896631 3.436518
1311875818.002400 -0.263426 8.896631 3.436518
1311875818.005667 -0.311322 8.992423 3.244935
1311875818.006719 -0.311322 8.992423 3.244935
1311875818.010697 -0.263426 8.896631 3.436518
1311875818.011575 -0.263426 8.896631 3.436518
1311875818.012566 -0.263426 8.896631 3.436518
1311875818.015673 -0.167635 8.752944 3.436518
1311875818.016678 -0.167635 8.752944 3.436518
1311875818.020286 -0.167635 8.705048 3.340727
1311875818.021297 -0.167635 8.705048 3.340727
1311875818.022569 -0.167635 8.705048 3.340727
1311875818.023543 -0.167635 8.705048 3.340727
1311875818.026692 -0.167635 8.705048 3.340727
1311875818.027811 -0.167635 8.705048 3.340727
1311875818.031303 -0.167635 8.681100 3.436518
1311875818.032295 -0.167635 8.681100 3.436518
1311875818.035563 -0.167635 8.705048 3.628101
1311875818.036522 -0.167635 8.705048 3.628101
1311875818.037797 -0.167635 8.705048 3.628101
1311875818.038791 -0.167635 8.705048 3.628101
1311875818.042424 -0.167635 8.752944 3.532310
1311875818.043537 -0.167635 8.752944 3.532310
1311875818.046677 0.023948 8.717022 3.628101
1311875818.047839 0.023948 8.717022 3.628101
1311875818.051423 0.011974 8.800840 3.771788
1311875818.052440 0.011974 8.800840 3.771788
1311875818.055665 0.023948 8.693074 3.484414
1311875818.056645 0.023948 8.693074 3.484414
1311875818.057933 0.023948 8.693074 3.484414
1311875818.058940 0.023948 8.693074 3.484414
1311875818.062407 0.023948 8.705048 3.412571
1311875818.063526 0.023948 8.705048 3.412571
1311875818.066779 0.047896 8.705048 3.149144
1311875818.067785 0.047896 8.705048 3.149144
1311875818.071304 0.071844 8.705048 3.053353
1311875818.072419 0.071844 8.705048 3.053353
1311875818.075549 0.035922 8.705048 2.718082
1311875818.076730 0.035922 8.705048 2.718082
1311875818.077826 0.035922 8.705048 2.718082
1311875818.078943 0.035922 8.705048 2.718082
1311875818.082446 0.023948 8.705048 2.861770
1311875818.083536 0.023948 8.705048 2.861770
1311875818.086691 0.023948 8.681100 2.670187
1311875818.087797 0.023948 8.681100 2.670187
1311875818.091287 0.023948 8.705048 2.718082
1311875818.092458 0.023948 8.705048 2.718082
1311875818.095558 0.119739 8.609257 2.765978
1311875818.096561 0.119739 8.609257 2.765978
1311875818.097778 0.119739 8.609257 2.765978
1311875818.098807 0.119739 8.609257 2.765978
1311875818.102411 -0.059870 8.705048 3.005457
1311875818.103543 -0.059870 8.705048 3.005457
1311875818.106667 0.023948 8.705048 3.053353
1311875818.107785 0.023948 8.705048 3.053353
1311875818.111312 -0.011974 8.705048 3.149144
1311875818.112456 -0.011974 8.705048 3.149144
1311875818.115577 -0.167635 8.896631 3.005457
1311875818.116677 -0.167635 8.896631 3.005457
1311875818.117800 -0.167635 8.896631 3.005457
1311875818.118906 -0.167635 8.896631 3.005457
1311875818.122427 -0.059870 8.992423 3.053353
1311875818.123389 -0.059870 8.992423 3.053353
1311875818.126688 0.023948 9.088214 3.244935
1311875818.127652 0.023948 9.088214 3.244935
1311875818.131305 -0.311322 9.076240 3.436518
1311875818.132297 -0.311322 9.076240 3.436518
1311875818.135564 -0.335270 9.088214 3.077300
1311875818.136520 -0.335270 9.088214 3.077300
1311875818.137772 -0.335270 9.088214 3.077300
1311875818.138797 -0.335270 9.088214 3.077300
1311875818.142444 -0.167635 9.088214 3.053353
1311875818.143409 -0.167635 9.088214 3.053353
1311875818.146594 -0.059870 9.076240 3.053353
1311875818.147729 -0.059870 9.076240 3.053353
1311875818.151331 -0.167635 8.896631 2.765978
1311875818.152414 -0.167635 8.896631 2.765978
1311875818.153404 -0.167635 8.896631 2.765978
1311875818.156693 -0.311322 9.064266 2.861770
1311875818.157666 -0.311322 9.064266 2.861770
1311875818.161310 -0.263426 9.088214 2.670187
1311875818.162277 -0.263426 9.088214 2.670187
1311875818.165555 -0.311322 9.088214 2.861770
1311875818.166578 -0.311322 9.088214 2.861770
1311875818.167803 -0.311322 9.088214 2.861770
1311875818.168806 -0.311322 9.088214 2.861770
1311875818.172416 -0.167635 8.896631 2.861770
1311875818.173393 -0.167635 8.896631 2.861770
1311875818.176701 -0.167635 8.705048 3.053353
1311875818.177657 -0.167635 8.705048 3.053353
1311875818.181344 -0.167635 8.705048 3.053353
1311875818.182290 -0.167635 8.705048 3.053353
1311875818.185572 -0.167635 8.728996 3.149144
1311875818.186566 -0.167635 8.728996 3.149144
1311875818.187778 -0.167635 8.728996 3.149144
1311875818.188927 -0.167635 8.728996 3.149144
1311875818.192438 -0.263426 8.705048 3.436518
1311875818.193398 -0.263426 8.705048 3.436518
1311875818.196691 -0.167635 8.609257 3.628101
1311875818.197671 -0.167635 8.609257 3.628101
1311875818.201282 -0.263426 8.609257 3.723893
1311875818.202312 -0.263426 8.609257 3.723893
1311875818.205534 -0.335270 8.321882 3.819684
1311875818.206528 -0.335270 8.321882 3.819684
1311875818.207787 -0.335270 8.321882 3.819684
1311875818.208792 -0.335270 8.321882 3.819684
1311875818.212469 -0.167635 8.321882 4.011267
1311875818.213434 -0.167635 8.321882 4.011267
1311875818.216668 -0.167635 8.417674 3.915476
1311875818.217657 -0.167635 8.417674 3.915476
1311875818.221284 -0.311322 8.513465 3.915476
1311875818.222307 -0.311322 8.513465 3.915476
1311875818.223387 -0.311322 8.513465 3.915476
1311875818.226681 -0.311322 8.513465 4.011267
1311875818.227650 -0.311322 8.513465 4.011267
1311875818.230980 -0.059870 8.513465 3.867580
1311875818.232311 -0.059870 8.513465 3.867580
1311875818.235536 -0.167635 8.513465 3.819684
1311875818.236547 -0.167635 8.513465 3.819684
1311875818.237798 -0.167635 8.513465 3.819684
1311875818.238797 -0.167635 8.513465 3.819684
1311875818.242290 -0.167635 8.513465 3.819684
1311875818.243400 -0.167635 8.513465 3.819684
1311875818.246554 -0.059870 8.345830 3.819684
1311875818.247713 -0.059870 8.345830 3.819684
1311875818.250817 -0.011974 8.273987 3.628101
1311875818.251996 -0.011974 8.273987 3.628101
1311875818.255290 -0.263426 7.938717 3.532310
1311875818.256295 -0.263426 7.938717 3.532310
1311875818.257566 -0.263426 7.938717 3.532310
1311875818.258519 -0.263426 7.938717 3.532310
1311875818.261678 -0.263426 7.938717 3.628101
1311875818.262808 -0.263426 7.938717 3.628101
1311875818.266304 -0.263426 7.926743 3.771788
1311875818.267430 -0.263426 7.926743 3.771788
1311875818.270531 -0.347244 7.926743 3.628101
1311875818.271545 -0.347244 7.926743 3.628101
1311875818.272776 -0.347244 7.926743 3.628101
1311875818.273771 -0.347244 7.926743 3.628101
1311875818.277438 -0.347244 7.747134 3.819684
1311875818.278575 -0.347244 7.747134 3.819684
1311875818.281686 -0.347244 7.747134 3.819684
1311875818.282814 -0.347244 7.747134 3.819684
1311875818.286356 -0.335270 7.747134 3.819684
1311875818.287414 -0.335270 7.747134 3.819684
1311875818.290629 -0.347244 7.651342 3.915476
1311875818.291574 -0.347244 7.651342 3.915476
1311875818.292802 -0.347244 7.651342 3.915476
1311875818.293778 -0.347244 7.651342 3.915476
1311875818.297417 -0.347244 7.938717 4.107059
1311875818.298427 -0.347244 7.938717 4.107059
1311875818.301672 -0.359218 7.890821 4.202850
1311875818.302680 -0.359218 7.890821 4.202850
1311875818.305805 -0.347244 7.747134 4.202850
1311875818.306946 -0.347244 7.747134 4.202850
1311875818.310563 -0.347244 7.747134 4.011267
1311875818.311551 -0.347244 7.747134 4.011267
1311875818.312903 -0.347244 7.747134 4.011267
1311875818.316334 -0.347244 7.890821 3.819684
1311875818.317332 -0.347244 7.890821 3.819684
1311875818.320622 -0.359218 7.938717 3.819684
1311875818.321543 -0.359218 7.938717 3.819684
1311875818.322793 -0.359218 7.938717 3.819684
1311875818.323795 -0.359218 7.938717 3.819684
1311875818.327482 -0.347244 8.034508 3.771788
1311875818.328472 -0.347244 8.034508 3.771788
1311875818.331682 -0.347244 8.130300 3.628101
1311875818.332771 -0.347244 8.130300 3.628101
1311875818.336325 -0.347244 8.226091 3.819684
1311875818.337291 -0.347244 8.226091 3.819684
1311875818.340667 -0.347244 8.321882 3.628101
1311875818.341663 -0.347244 8.321882 3.628101
1311875818.342905 -0.347244 8.321882 3.628101
1311875818.344298 -0.347244 8.321882 3.628101
1311875818.347549 -0.347244 8.273987 3.628101
1311875818.348539 -0.347244 8.273987 3.628101
1311875818.351824 -0.347244 8.273987 3.723893
1311875818.353668 -0.347244 8.273987 3.723893
1311875818.356308 -0.263426 8.273987 3.628101
1311875818.357425 -0.263426 8.273987 3.628101
1311875818.360566 -0.311322 8.321882 3.532310
1311875818.361707 -0.311322 8.321882 3.532310
1311875818.362794 -0.311322 8.321882 3.532310
1311875818.363922 -0.311322 8.321882 3.532310
1311875818.367425 -0.347244 8.417674 3.436518
1311875818.368412 -0.347244 8.417674 3.436518
1311875818.371659 -0.347244 8.417674 3.412571
1311875818.372650 -0.347244 8.417674 3.412571
